timestamp,acc_x,acc_y,acc_z,gyro_x,gyro_y,gyro_z,gravity_x,gravity_y,gravity_z,pedo
1628839782133,-1.0707789659500122, 5.782685279846191, 6.761238098144531, -0.36525222659111023, -0.17683374881744385, -0.06764423102140427, -1.0534738302230835, 5.766927242279053, 7.865675926208496,15
1628839782150,-0.9366320967674255, 5.582662582397461, 8.366209030151367, -0.5090628266334534, -0.34088432788848877, -0.11664635688066483, -1.0259052515029907, 5.7128472328186035, 7.908666610717773,15
1628839782166,-1.0037055015563965, 5.410787105560303, 9.857394218444824, -0.4323638379573822, -0.16831164062023163, -0.14753900468349457, -1.0016149282455444, 5.648099422454834, 7.958130836486816,15
1628839782183,-1.199535846710205, 5.177227973937988, 9.596885681152344, -0.18096163868904114, 0.10972214490175247, -0.1422126740217209, -1.0088648796081543, 5.599792003631592, 7.9912848472595215,15
1628839782199,-1.3432645797729492, 4.958041667938232, 8.650073051452637, 0.01717737503349781, 0.10120003670454025, -0.07723160833120346, -1.0416772365570068, 5.576594829559326, 8.003287315368652,15
1628839782215,-1.3001459836959839, 4.934086799621582, 7.769734859466553, 0.133291095495224, -0.05326317623257637, -0.013315794058144093, -1.0486680269241333, 5.585460662841797, 7.996188163757324,15
1628839782231,-1.0659879446029663, 5.110753536224365, 7.457124710083008, 0.10133319348096848, -0.2822948396205902, 0.043143171817064285, -1.0263245105743408, 5.60094690322876, 7.988251686096191,15
1628839782248,-0.9318411350250244, 5.215555667877197, 7.632593631744385, 0.011851056478917599, -0.34194958209991455, 0.04846949130296707, -0.9839224219322205, 5.608698844909668, 7.988147735595703,15
1628839782264,-0.9893326163291931, 5.225137710571289, 7.4667067527771, -0.07656581699848175, -0.37923380732536316, 0.03568632900714874, -0.937630295753479, 5.606260299682617, 7.995423793792725,15
1628839782280,-1.080360770225525, 5.082007884979248, 7.8451924324035645, -0.12450267374515533, -0.4442148804664612, 0.060187388211488724, -0.8669859766960144, 5.590219020843506, 8.014605522155762,15
1628839782297,-0.9797507524490356, 5.043680191040039, 8.200322151184082, -0.12024161964654922, -0.3717769682407379, 0.1422126740217209, -0.8081533312797546, 5.574758052825928, 8.031505584716797,15
1628839782313,-0.812666118144989, 5.182018756866455, 8.33746337890625, -0.13941636681556702, -0.23009692132472992, 0.19867165386676788, -0.7556769251823425, 5.559014797210693, 8.047510147094727,15
1628839782329,-0.5593442320823669, 5.425159931182861, 8.077553749084473, -0.17989638447761536, -0.08628634363412857, 0.21784639358520508, -0.7068154215812683, 5.5350470542907715, 8.068443298339844,15
1628839782345,-0.45933300256729126, 5.625781536102295, 8.0350341796875, -0.23102903366088867, -0.046871595084667206, 0.18695375323295593, -0.6820670366287231, 5.511129856109619, 8.08692455291748,15
1628839782362,-0.4066324830055237, 5.653928279876709, 8.138638496398926, -0.24274691939353943, -0.047936856746673584, 0.12303793430328369, -0.662851095199585, 5.483495712280273, 8.107281684875488,15
1628839782378,-0.6024628281593323, 5.644346237182617, 8.309316635131836, -0.20333217084407806, -0.08841687440872192, 0.038882117718458176, -0.6475516557693481, 5.456894397735596, 8.126443862915039,15
1628839782394,-0.7414005994796753, 5.4970245361328125, 8.323689460754395, -0.16072162985801697, -0.13954952359199524, 0.022903166711330414, -0.6319267749786377, 5.434397220611572, 8.142733573913574,15
1628839782411,-0.8509937524795532, 5.4539055824279785, 8.57940673828125, -0.08615318685770035, -0.207726389169693, 0.04420843720436096, -0.6000006794929504, 5.413288116455078, 8.159192085266113,15
1628839782427,-0.631208598613739, 5.429951190948486, 8.7638578414917, 0.011851056478917599, -0.17576847970485687, 0.08362318575382233, -0.5698277354240417, 5.408436298370361, 8.164571762084961,15
1628839782443,-0.5928809642791748, 5.611408710479736, 8.503350257873535, 0.044874224811792374, -0.1086568832397461, 0.08894950151443481, -0.5449103713035583, 5.412156581878662, 8.163806915283203,15
1628839782459,-0.4880787432193756, 5.792267322540283, 8.200322151184082, 0.01717737503349781, -0.07030738890171051, 0.06338317692279816, -0.5266701579093933, 5.417818069458008, 8.161248207092285,15
1628839782476,-0.4880787432193756, 5.982707500457764, 8.030242919921875, -0.049934227019548416, -0.046871595084667206, -0.006924212910234928, -0.5140085816383362, 5.417625427246094, 8.16218376159668,15
1628839782492,-0.6024628281593323, 6.011453628540039, 8.14342975616455, -0.09680582582950592, -0.029827378690242767, -0.08575371652841568, -0.5137442946434021, 5.409265041351318, 8.167742729187012,15
1628839782508,-0.8318299055099487, 5.687464714050293, 8.40872859954834, -0.1255679428577423, 0.009587371721863747, -0.13262531161308289, -0.523015022277832, 5.3949198722839355, 8.176637649536133,15
1628839782524,-1.0522139072418213, 5.444324016571045, 8.3757905960083, -0.09254477173089981, 0.047936856746673584, -0.10492845624685287, -0.5382819771766663, 5.379866600036621, 8.18556022644043,15
1628839782541,-1.2480443716049194, 5.549126148223877, 8.020661354064941, -0.0318247489631176, 0.051132649183273315, -0.03675159066915512, -0.5539912581443787, 5.371077060699463, 8.190282821655273,15
1628839782557,-1.2528352737426758, 5.706628799438477, 7.755361557006836, 0.0022636849898844957, 0.010652635246515274, 0.02503369376063347, -0.5635732412338257, 5.3707451820373535, 8.189846992492676,15
1628839782573,-1.2001347541809082, 5.687464714050293, 7.476288318634033, -0.011584741063416004, -0.019174743443727493, 0.03994738310575485, -0.5628480315208435, 5.372792720794678, 8.188553810119629,15
1628839782590,-0.913276195526123, 5.916233062744141, 7.688887119293213, -0.026498429477214813, -0.10546109080314636, 0.02503369376063347, -0.5537823438644409, 5.372803211212158, 8.189165115356445,15
1628839782606,-0.9228581190109253, 5.835385799407959, 7.996706008911133, 0.005459475331008434, -0.07350318133831024, -0.02077263966202736, -0.5420393943786621, 5.372803211212158, 8.189949989318848,15
1628839782622,-0.9372310042381287, 5.501815319061279, 7.849983215332031, 0.0672447606921196, -0.01597895286977291, -0.047404225915670395, -0.5402783751487732, 5.377408504486084, 8.187043190002441,15
1628839782638,-0.87973952293396, 5.2772393226623535, 7.452333927154541, 0.10133319348096848, 0.005326317623257637, -0.03355580195784569, -0.546200156211853, 5.392060279846191, 8.177007675170898,15
1628839782655,-0.8084740042686462, 5.2490925788879395, 7.2301530838012695, 0.11944267153739929, -0.022370534017682076, -0.03142527490854263, -0.5495545268058777, 5.407146453857422, 8.166814804077148,15
1628839782671,-0.8084740042686462, 5.158663272857666, 7.234345436096191, 0.1759016364812851, -0.10652635246515274, -0.043143171817064285, -0.5459870100021362, 5.426153182983398, 8.154438972473145,15
1628839782687,-0.7749373316764832, 4.962832450866699, 7.078639030456543, 0.24407850205898285, -0.15233267843723297, -0.038882117718458176, -0.5357014536857605, 5.451982498168945, 8.1378755569458,15
1628839782704,-0.7222367525100708, 4.73406457901001, 6.766029357910156, 0.2877542972564697, -0.22903165221214294, -0.03142527490854263, -0.510468065738678, 5.496734142303467, 8.109342575073242,15
1628839782720,-0.7749373316764832, 4.586143493652344, 6.4438371658325195, 0.29095008969306946, -0.2929474711418152, -0.018642112612724304, -0.4923078119754791, 5.521059989929199, 8.093926429748535,15
1628839782736,-0.8515926003456116, 4.8532395362854, 6.349215984344482, 0.22170796990394592, -0.3909517228603363, 0.06231791526079178, -0.4401676058769226, 5.566592693328857, 8.065693855285645,15
1628839782753,-0.5934798121452332, 5.3922224044799805, 6.543249607086182, 0.1141163557767868, -0.4101264476776123, 0.1411474198102951, -0.3838200271129608, 5.591477394104004, 8.051345825195312,15
1628839782769,-0.2491297721862793, 6.011453628540039, 6.515102863311768, -0.06058686226606369, -0.37071171402931213, 0.15712636709213257, -0.32316070795059204, 5.601783752441406, 8.046843528747559,15
1628839782785,0.43418049812316895, 6.192910671234131, 6.945690155029297, -0.3705785572528839, -0.40799593925476074, 0.08575371652841568, -0.24528631567955017, 5.574852466583252, 8.068268775939941,15
1628839782802,1.070180058479309, 5.9922895431518555, 8.645281791687012, -0.5974797010421753, -0.4303664565086365, -0.013315794058144093, -0.18378150463104248, 5.513613700866699, 8.111867904663086,15
1628839782818,1.1366546154022217, 5.577871799468994, 9.857394218444824, -0.7242460250854492, -0.19068217277526855, -0.11025477200746536, -0.1452559530735016, 5.42900276184082, 8.169512748718262,15
1628839782834,0.8312310576438904, 5.377849102020264, 10.245461463928223, -0.7476818561553955, -0.011717898771166801, -0.09108003228902817, -0.13620562851428986, 5.33339786529541, 8.232400894165039,15
1628839782850,0.49586406350135803, 5.62099027633667, 10.160422325134277, -0.6741786599159241, 0.13222584128379822, -0.027164220809936523, -0.14551235735416412, 5.239290237426758, 8.292452812194824,15
1628839782867,0.31919750571250916, 6.159374237060547, 9.4645357131958, -0.5122585892677307, 0.13116057217121124, 0.018642112612724304, -0.16731399297714233, 5.138162612915039, 8.355082511901855,15
1628839782883,0.3335703909397125, 6.5312724113464355, 8.8818359375, -0.37910065054893494, 0.07257107645273209, 0.01651158556342125, -0.17597854137420654, 5.085403919219971, 8.387121200561523,15
1628839782899,0.409626841545105, 6.931317329406738, 8.366209030151367, -0.29281431436538696, 0.01717737503349781, -0.01012000348418951, -0.17817197740077972, 5.048282146453857, 8.40947151184082,15
1628839782915,0.38567203283309937, 7.160085201263428, 7.670322418212891, -0.23635534942150116, 0.02569948323071003, -0.10705898702144623, -0.18152813613414764, 5.021545886993408, 8.425392150878906,15
1628839782932,0.22337837517261505, 7.012763500213623, 7.111577033996582, -0.225702702999115, 0.03848264366388321, -0.20825901627540588, -0.19518503546714783, 5.000010967254639, 8.437884330749512,15
1628839782948,-0.11618071049451828, 6.597746849060059, 6.855859756469727, -0.24274691939353943, 0.019307902082800865, -0.2743053436279297, -0.22358818352222443, 4.970174312591553, 8.454791069030762,15
1628839782964,-0.4838866591453552, 6.5648088455200195, 6.893588542938232, -0.24061639606952667, -0.02756369300186634, -0.2700442969799042, -0.2441931813955307, 4.946094989776611, 8.468331336975098,15
1628839782980,-0.8378186225891113, 6.40730619430542, 7.276865005493164, -0.17883111536502838, -0.08082687109708786, -0.23489060997962952, -0.25669410824775696, 4.924623012542725, 8.48046588897705,15
1628839782997,-1.009694218635559, 6.1737470626831055, 7.33854866027832, -0.09147950261831284, -0.1255679428577423, -0.21038953959941864, -0.263982355594635, 4.912194728851318, 8.487447738647461,15
1628839783013,-1.1294680833816528, 5.930605888366699, 7.372085094451904, -0.06271739304065704, -0.1639174222946167, -0.15925689041614532, -0.2636707127094269, 4.907810211181641, 8.489994049072266,15
1628839783029,-1.0192761421203613, 5.682673931121826, 7.679305553436279, -0.09147950261831284, -0.20972375571727753, -0.07510107755661011, -0.253691703081131, 4.903174877166748, 8.492974281311035,15
1628839783045,-0.8809372186660767, 5.568289756774902, 8.209903717041016, -0.07337002456188202, -0.20333217084407806, 0.004793685860931873, -0.2256292998790741, 4.8928914070129395, 8.49969482421875,15
1628839783062,-0.6707339882850647, 5.549126148223877, 8.366209030151367, -0.033955276012420654, -0.13302478194236755, 0.09960214048624039, -0.20219366252422333, 4.888484001159668, 8.502820014953613,15
1628839783078,-0.5365871787071228, 5.582662582397461, 8.488977432250977, -0.00519315991550684, -0.06910897046327591, 0.1837579607963562, -0.1801231950521469, 4.887790203094482, 8.503715515136719,15
1628839783094,-0.6084515452384949, 5.811430931091309, 8.33746337890625, 0.022503692656755447, 0.019307902082800865, 0.2647179961204529, -0.1614202857017517, 4.891308307647705, 8.502067565917969,15
1628839783110,-0.6659430265426636, 6.116255760192871, 8.15780258178711, 0.05872265249490738, 0.07470160722732544, 0.32650327682495117, -0.14788076281547546, 4.9002861976623535, 8.497142791748047,15
1628839783127,-0.5084403157234192, 6.259385585784912, 8.309316635131836, 0.09600687772035599, 0.09920266270637512, 0.3584611713886261, -0.1305341273546219, 4.919750213623047, 8.486173629760742,15
1628839783143,-0.2976382076740265, 6.340232849121094, 8.285361289978027, 0.12157320231199265, 0.16951005160808563, 0.35100433230400085, -0.121860072016716, 4.939553260803223, 8.474790573120117,15
1628839783159,-0.4126211702823639, 6.397724151611328, 8.224276542663574, 0.09707213938236237, 0.22809955477714539, 0.3296990692615509, -0.121802918612957, 4.959695816040039, 8.463019371032715,15
1628839783175,-0.4749036133289337, 6.302504062652588, 8.233260154724121, 0.044874224811792374, 0.29947221279144287, 0.32330748438835144, -0.13165825605392456, 4.974846363067627, 8.453973770141602,15
1628839783192,-0.5467679500579834, 6.307294845581055, 8.40872859954834, -0.011584741063416004, 0.33888694643974304, 0.33715590834617615, -0.14920297265052795, 4.9823126792907715, 8.449284553527832,15
1628839783208,-0.2982370853424072, 6.331249713897705, 8.986039161682129, -0.038216330111026764, 0.330364853143692, 0.3531348705291748, -0.17304542660713196, 4.983044147491455, 8.44839859008789,15
1628839783224,0.03174009174108505, 6.492944717407227, 9.701088905334473, 0.004394211806356907, 0.3165164291858673, 0.34674328565597534, -0.18764695525169373, 4.983517646789551, 8.447807312011719,15
1628839783240,0.34734439849853516, 6.645656585693359, 10.188569068908691, 0.08961529284715652, 0.3687143325805664, 0.30306747555732727, -0.2040807008743286, 4.991054058074951, 8.442975997924805,15
1628839783257,0.2611071467399597, 7.155294418334961, 10.136466979980469, 0.17270584404468536, 0.43369540572166443, 0.24341271817684174, -0.2326662689447403, 5.0102949142456055, 8.430831909179688,15
1628839783273,0.3138076961040497, 7.384661674499512, 9.435790061950684, 0.12050793319940567, 0.27603641152381897, 0.12623372673988342, -0.267743855714798, 5.036656856536865, 8.414066314697266,15
1628839783289,0.5910843014717102, 6.726503849029541, 10.591009140014648, -0.016911057755351067, -0.11598056554794312, -0.012250530533492565, -0.27606385946273804, 5.051573753356934, 8.404850006103516,15
1628839783305,0.6246210336685181, 6.402515411376953, 12.863719940185547, -0.026498429477214813, -0.2768353521823883, -0.08149266242980957, -0.24630899727344513, 5.044884204864502, 8.409790992736816,15
1628839783322,0.385073184967041, 6.326458930969238, 13.758431434631348, 0.07257107645273209, -0.1170458272099495, -0.12197267264127731, -0.22283081710338593, 5.0426025390625, 8.411813735961914,15
1628839783338,0.4808923304080963, 5.711419582366943, 13.53145980834961, 0.20999006927013397, 0.05126580595970154, -0.21358533203601837, -0.2270842343568802, 5.053859710693359, 8.40494155883789,15
1628839783354,0.28506195545196533, 4.743646621704102, 12.754725456237793, 0.4102596044540405, 0.12583425641059875, -0.2732400894165039, -0.254926472902298, 5.084348201751709, 8.385733604431152,15
1628839783370,0.03174009174108505, 4.090878486633301, 11.320432662963867, 0.7213165760040283, 0.13542161881923676, -0.2498043030500412, -0.30270057916641235, 5.168839931488037, 8.332321166992188,15
1628839783387,-0.3461466431617737, 4.023805141448975, 9.544784545898438, 1.0195903778076172, 0.18761953711509705, -0.1880190074443817, -0.33862513303756714, 5.27122163772583, 8.266538619995117,15
1628839783403,-0.6952876448631287, 4.210053443908691, 7.570311069488525, 1.2028156518936157, 0.254731148481369, -0.16351795196533203, -0.3813682794570923, 5.404160022735596, 8.178369522094727,15
1628839783419,-0.9959201812744141, 4.3477935791015625, 5.691058158874512, 1.2166640758514404, 0.22809955477714539, -0.1784316450357437, -0.42952829599380493, 5.553850173950195, 8.07504653930664,15
1628839783436,-1.3881797790527344, 4.329228401184082, 4.422053337097168, 1.057939887046814, 0.09174582362174988, -0.1880190074443817, -0.4725337028503418, 5.697610378265381, 7.971829414367676,15
1628839783452,-1.7133660316467285, 4.014223098754883, 3.8680989742279053, 0.7383607625961304, -0.14580795168876648, -0.16777899861335754, -0.5018086433410645, 5.8477654457092285, 7.860530853271484,15
1628839783468,-2.0002245903015137, 3.6381330490112305, 4.393906593322754, 0.40493330359458923, -0.366317480802536, -0.1081242486834526, -0.4939540922641754, 5.91750431060791, 7.808666229248047,15
1628839783485,-1.9666879177093506, 3.4183478355407715, 5.30778169631958, 0.21531638503074646, -0.422776460647583, -5.326317623257637E-4, -0.463162362575531, 5.953985691070557, 7.782778739929199,15
1628839783501,-2.028970241546631, 3.39978289604187, 5.979713439941406, 0.0906805545091629, -0.3609911799430847, 0.12197267264127731, -0.4207770526409149, 5.96999979019165, 7.772911548614502,15
1628839783517,-1.8277500867843628, 3.504585027694702, 6.268368244171143, -0.014780531637370586, -0.22250692546367645, 0.21145480871200562, -0.36545419692993164, 5.972487926483154, 7.773797988891602,15
1628839783534,-1.5983830690383911, 3.4854211807250977, 6.358798027038574, -0.17030900716781616, -0.08082687109708786, 0.25300008058547974, -0.33508700132369995, 5.956503391265869, 7.787419319152832,15
1628839783550,-1.4935808181762695, 3.3758280277252197, 6.31567907333374, -0.35033854842185974, 0.016112111508846283, 0.2838927209377289, -0.31652528047561646, 5.919950485229492, 7.816016674041748,15
1628839783566,-1.5654451847076416, 3.251862049102783, 6.798966884613037, -0.5165196657180786, 0.027830010280013084, 0.325437992811203, -0.29893743991851807, 5.862550735473633, 7.8598504066467285,15
1628839783583,-1.622337818145752, 3.4614665508270264, 7.33854866027832, -0.5836312770843506, 0.05552686005830765, 0.4063980281352997, -0.28000327944755554, 5.791518688201904, 7.913028717041016,15
1628839783599,-1.5750271081924438, 3.728562355041504, 7.660740375518799, -0.5761744379997253, 0.06937528401613235, 0.5012065172195435, -0.2471167892217636, 5.6914520263671875, 7.986389636993408,15
1628839783615,-1.240259051322937, 4.023805141448975, 7.655949592590332, -0.556999683380127, 0.05446159839630127, 0.5853623151779175, -0.21305793523788452, 5.6194891929626465, 8.038162231445312,15
1628839783632,-0.6665419340133667, 4.310064792633057, 7.76913595199585, -0.5495428442955017, 0.02143842913210392, 0.6450170874595642, -0.1682279109954834, 5.549956798553467, 8.087385177612305,15
1628839783648,-0.23176254332065582, 4.700527667999268, 8.039225578308105, -0.5676522850990295, 0.040613170713186264, 0.6727139353752136, -0.11760944128036499, 5.479642868041992, 8.136079788208008,15
1628839783664,0.2844630777835846, 5.3922224044799805, 8.262005805969238, -0.5996102094650269, 0.11518161743879318, 0.6492781043052673, -0.056643735617399216, 5.3828535079956055, 8.201085090637207,15
1628839783680,0.7671520113945007, 5.854549407958984, 8.474604606628418, -0.6006754636764526, 0.17909742891788483, 0.5406212210655212, -0.025003572925925255, 5.308536052703857, 8.249541282653809,15
1628839783697,0.9821462035179138, 6.021035194396973, 8.85368824005127, -0.5516733527183533, 0.2664490342140198, 0.32650327682495117, -0.013852346688508987, 5.2368268966674805, 8.295272827148438,15
1628839783713,0.7336152791976929, 5.940187931060791, 9.047722816467285, -0.4312985837459564, 0.341017484664917, 0.17523585259914398, -0.026862693950533867, 5.1738786697387695, 8.334649085998535,15
1628839783729,0.2844630777835846, 5.682673931121826, 8.58838939666748, -0.271509051322937, 0.39001959562301636, 0.0804273933172226, -0.06143845245242119, 5.12868070602417, 8.362354278564453,15
1628839783746,-0.21738967299461365, 5.4539055824279785, 8.015870094299316, -0.10639319568872452, 0.2984069585800171, 0.05379580706357956, -0.11484838277101517, 5.098954677581787, 8.379951477050781,15
1628839783762,-0.4611296057701111, 5.468278408050537, 7.617621898651123, 0.023568956181406975, 0.1620532125234604, 0.0612526535987854, -0.13945463299751282, 5.097609996795654, 8.380395889282227,15
1628839783778,-0.5761125683784485, 5.525171279907227, 7.381068229675293, 0.13222584128379822, 0.01717737503349781, 0.08681897819042206, -0.14532026648521423, 5.112375259399414, 8.371296882629395,15
1628839783794,-0.5090391635894775, 5.711419582366943, 7.206198215484619, 0.20785954594612122, -0.06804370880126953, 0.10492845624685287, -0.1349204182624817, 5.138798236846924, 8.355277061462402,15
1628839783811,-0.33237263560295105, 5.7731032371521, 7.01216459274292, 0.19720691442489624, -0.11598056554794312, 0.08788423985242844, -0.11768077313899994, 5.170562267303467, 8.335919380187988,15
1628839783827,-0.4042370021343231, 5.730583667755127, 7.381068229675293, 0.12476898729801178, -0.15646058320999146, 0.10173266381025314, -0.0950733944773674, 5.196805000305176, 8.319872856140137,15
1628839783843,-0.3269828259944916, 5.711419582366943, 7.788299560546875, 0.08428897708654404, -0.1926795393228531, 0.13369056582450867, -0.056706007570028305, 5.219317436218262, 8.306118965148926,15
1628839783859,-0.15989819169044495, 5.911442279815674, 8.460830688476562, 0.056592125445604324, -0.26618272066116333, 0.16671374440193176, -0.015026175417006016, 5.22974967956543, 8.299735069274902,15
1628839783875,-0.020960437133908272, 6.3450236320495605, 9.033349990844727, 0.04700475186109543, -0.290683776140213, 0.18269269168376923, 0.017650697380304337, 5.235121726989746, 8.296342849731445,15
1628839783892,-0.3078189790248871, 7.331961154937744, 10.004117012023926, 0.02996053732931614, -0.2725743055343628, 0.20825901627540588, 0.08722028881311417, 5.244114398956299, 8.290221214294434,15
1628839783908,0.06946887820959091, 8.566231727600098, 10.231088638305664, -0.11917635798454285, -0.13409005105495453, 0.17736637592315674, 0.13958415389060974, 5.244507312774658, 8.28925609588623,15
1628839783924,0.23176254332065582, 8.552456855773926, 10.922782897949219, -0.36312171816825867, -0.16178689897060394, 0.05273054540157318, 0.1580025851726532, 5.227160930633545, 8.299875259399414,15
1628839783942,0.3227907419204712, 8.45663833618164, 12.091776847839355, -0.6102628707885742, -0.09041424095630646, -0.03568632900714874, 0.1774466335773468, 5.16977596282959, 8.335349082946777,15
1628839783958,0.5425758957862854, 7.28884220123291, 12.806827545166016, -0.8744481801986694, -0.11598056554794312, -0.13369056582450867, 0.18050983548164368, 5.047440528869629, 8.409926414489746,15
1628839783974,1.3504509925842285, 5.768312454223633, 14.407007217407227, -0.9586040377616882, -0.2619216740131378, -0.16777899861335754, 0.20293624699115753, 4.883010387420654, 8.50594711303711,15
1628839783990,1.790021300315857, 4.724482536315918, 15.23584270477295, -0.8531429171562195, -0.20546270906925201, -0.21038953959941864, 0.2167336344718933, 4.799638748168945, 8.552929878234863,15
1628839784007,1.8762586116790771, 3.371037244796753, 15.614328384399414, -0.40679749846458435, -0.001997369108721614, -0.2221074402332306, 0.22108761966228485, 4.673603534698486, 8.622335433959961,15
1628839784023,1.3456600904464722, 2.8799641132354736, 14.601040840148926, 0.10559424757957458, 0.24407850205898285, -0.1603221595287323, 0.2037285566329956, 4.652925491333008, 8.63393783569336,15
1628839784039,0.6767227053642273, 2.7128794193267822, 11.533031463623047, 0.8044071197509766, 0.43795645236968994, 0.003728422336280346, 0.13521745800971985, 4.721383571624756, 8.598043441772461,15
1628839784055,0.246135413646698, 2.8182804584503174, 8.95310115814209, 1.1772493124008179, 0.2941458821296692, 0.10173266381025314, 0.0916210487484932, 4.8487868309021, 8.527425765991211,15
1628839784072,-0.10719766467809677, 2.9135007858276367, 7.40981388092041, 1.315733551979065, -0.10000161081552505, 0.2029327005147934, 0.08941971510648727, 5.006616115570068, 8.435751914978027,15
1628839784088,0.4802934527397156, 2.8847551345825195, 7.357712268829346, 1.2922978401184082, -0.45260384678840637, 0.3627222180366516, 0.1392248421907425, 5.16769552230835, 8.33736515045166,15
1628839784104,1.369614839553833, 3.223116397857666, 7.731407165527344, 1.372192621231079, -0.619850218296051, 0.446878045797348, 0.27608272433280945, 5.378769874572754, 8.199312210083008,15
1628839784120,2.182281017303467, 3.9908671379089355, 7.62241268157959, 1.5245252847671509, -0.6539386510848999, 0.3808317184448242, 0.3990175127983093, 5.55311393737793, 8.077116966247559,15
1628839784137,2.8943369388580322, 4.624471187591553, 7.054684162139893, 1.5671358108520508, -0.5399554371833801, 0.14327794313430786, 0.5076304078102112, 5.739224910736084, 7.939755916595459,15
1628839784153,2.8176815509796143, 5.049069881439209, 6.202492713928223, 1.4627399444580078, -0.30240169167518616, -0.14966952800750732, 0.5750704407691956, 5.922417163848877, 7.799383163452148,15
1628839784169,2.287083148956299, 5.072425842285156, 4.990380764007568, 1.2198598384857178, -0.02436790242791176, -0.5065327882766724, 0.5738905072212219, 6.140405178070068, 7.629035472869873,15
1628839784185,1.5606542825698853, 4.772392272949219, 3.9627203941345215, 0.9524787664413452, 0.1002679318189621, -0.7653918266296387, 0.5134794116020203, 6.273553371429443, 7.524292945861816,15
1628839784202,0.6665419340133667, 4.219635486602783, 3.465658664703369, 0.613724946975708, 0.17696690559387207, -0.9635308384895325, 0.41874924302101135, 6.3743391036987305, 7.445035457611084,15
1628839784218,-0.19822585582733154, 3.8573193550109863, 3.2572519779205322, 0.31438589096069336, 0.2323606014251709, -1.018924593925476, 0.29956749081611633, 6.440466403961182, 7.393698215484619,15
1628839784234,-0.8054796457290649, 3.5950143337249756, 3.191376209259033, -0.01584579423069954, 0.22383849322795868, -0.985901415348053, 0.16813288629055023, 6.4689178466796875, 7.372987747192383,15
1628839784250,-1.2498409748077393, 3.3470823764801025, 3.8303701877593994, -0.3801659345626831, 0.14394372701644897, -0.8655266165733337, 0.005944279488176107, 6.443172454833984, 7.39740514755249,15
1628839784267,-1.4702249765396118, 3.33750057220459, 4.9526519775390625, -0.6123933792114258, 0.07789739221334457, -0.6695181131362915, -0.0924617350101471, 6.382445335388184, 7.449292182922363,15
1628839784283,-1.446270227432251, 3.3758280277252197, 5.965340614318848, -0.6603302359580994, 0.06191844120621681, -0.4894886016845703, -0.16614221036434174, 6.303046226501465, 7.515326023101807,15
1628839784299,-1.297750473022461, 3.6614890098571777, 6.453419208526611, -0.595349133014679, 0.1279647797346115, -0.30839377641677856, -0.22255030274391174, 6.222527503967285, 7.580681324005127,15
1628839784315,-1.1402478218078613, 4.162144184112549, 6.277950286865234, -0.4941491186618805, 0.1524658352136612, -0.12303793430328369, -0.2801026999950409, 6.132258415222168, 7.651997089385986,15
1628839784332,-0.7958977222442627, 4.75801944732666, 6.37257194519043, -0.4557996392250061, 0.11305109411478043, -0.001597895286977291, -0.3031664490699768, 6.075525283813477, 7.696245193481445,15
1628839784348,-0.42819178104400635, 5.2490925788879395, 6.538458824157715, -0.44940805435180664, 0.11092056334018707, 0.0942758247256279, -0.31316372752189636, 6.0225019454956055, 7.737410068511963,15
1628839784364,-0.15570610761642456, 5.7449564933776855, 6.561814785003662, -0.4856269955635071, 0.10346371680498123, 0.15180005133152008, -0.31550291180610657, 5.970024585723877, 7.777877330780029,15
1628839784381,0.21738967299461365, 6.254594326019287, 6.912752151489258, -0.595349133014679, 0.04167843610048294, 0.1933453232049942, -0.3089320957660675, 5.911790370941162, 7.822493553161621,15
1628839784397,0.541977047920227, 6.664820194244385, 7.64636754989624, -0.6699175834655762, -0.006258423440158367, 0.1837579607963562, -0.28569555282592773, 5.8164286613464355, 7.894532680511475,15
1628839784413,0.6138413548469543, 7.1367292404174805, 8.565033912658691, -0.628372311592102, -0.0318247489631176, 0.13369056582450867, -0.2655717730522156, 5.740535259246826, 7.950587749481201,15
1628839784430,0.4515477120876312, 7.713440895080566, 9.000411987304688, -0.4611259400844574, -0.0073236869648098946, 0.060187388211488724, -0.2503131628036499, 5.677090167999268, 7.9965057373046875,15
1628839784446,0.23655350506305695, 8.070965766906738, 9.018977165222168, -0.34607750177383423, -0.004127896390855312, -0.03249053657054901, -0.24518312513828278, 5.631301403045654, 8.028974533081055,15
1628839784462,-0.05988696217536926, 8.13744068145752, 9.099823951721191, -0.29281431436538696, 0.031025800853967667, -0.15286532044410706, -0.2507125437259674, 5.595888614654541, 8.053526878356934,15
1628839784479,-0.5521578192710876, 7.9943108558654785, 9.374106407165527, -0.27896589040756226, 0.08748476952314377, -0.20612849295139313, -0.2795396149158478, 5.553269863128662, 8.082027435302734,15
1628839784495,-0.9827450513839722, 8.023056983947754, 9.833439826965332, -0.27470484375953674, 0.14607426524162292, -0.19121479988098145, -0.3134171962738037, 5.521356582641602, 8.102622985839844,15
1628839784511,-1.3600329160690308, 7.975745677947998, 10.680839538574219, -0.21505007147789001, 0.14394372701644897, -0.12197267264127731, -0.34799090027809143, 5.491318225860596, 8.121603012084961,17
1628839784528,-1.4127334356307983, 8.63809585571289, 10.922782897949219, -0.0648479163646698, 0.1950763761997223, -0.006924212910234928, -0.3879282772541046, 5.470316410064697, 8.133956909179688,17
1628839784544,-0.6240221858024597, 8.50933837890625, 11.059924125671387, 0.02996053732931614, 0.027830010280013084, -0.022903166711330414, -0.40332281589508057, 5.4722466468811035, 8.131909370422363,17
1628839784560,0.1119886189699173, 8.43807315826416, 11.524048805236816, 1.3315794058144093E-4, -0.20013637840747833, -0.08575371652841568, -0.39404475688934326, 5.47750997543335, 8.128820419311523,17
1628839784577,1.0438297986984253, 7.808660984039307, 13.261368751525879, -0.2810963988304138, -0.6049365401268005, -0.2306295484304428, -0.353841632604599, 5.46017599105835, 8.14232063293457,17
1628839784593,1.9762698411941528, 6.331249713897705, 15.82752513885498, -0.23635534942150116, -0.7402250170707703, -0.43729066848754883, -0.28853467106819153, 5.4168901443481445, 8.173748016357422,17
1628839784610,2.06190824508667, 4.319646835327148, 16.57551383972168, 0.4006722569465637, -0.4557996392250061, -0.6609960198402405, -0.23666313290596008, 5.409354209899902, 8.180402755737305,17
1628839784626,1.034247875213623, 3.2422802448272705, 14.478272438049316, 1.1580746173858643, 0.07470160722732544, -0.6013412475585938, -0.265458345413208, 5.499188423156738, 8.119394302368164,17
1628839784642,0.035333309322595596, 3.151850938796997, 10.38260269165039, 1.7397085428237915, 0.6605965495109558, -0.34248220920562744, -0.3543950915336609, 5.672428607940674, 7.995877742767334,17
1628839784658,-0.8821349740028381, 4.028595924377441, 5.619792461395264, 1.9197380542755127, 0.9290429353713989, -0.12410320341587067, -0.4757987856864929, 5.891763687133789, 7.829230308532715,17
1628839784675,-1.5516712665557861, 5.044279098510742, 2.8362464904785156, 1.6310516595840454, 0.6840323209762573, -0.017576847225427628, -0.589608371257782, 6.1112518310546875, 7.651214122772217,17
1628839784691,-1.8912303447723389, 6.0306172370910645, 1.8606879711151123, 1.0057419538497925, 0.08961529284715652, -0.05273054540157318, -0.6657689809799194, 6.334806442260742, 7.4607696533203125,17
1628839784707,-1.7714563608169556, 5.916233062744141, 2.5949020385742188, 0.4667185842990875, -0.41638487577438354, -0.1890842765569687, -0.6637747883796692, 6.425510406494141, 7.382976055145264,17
1628839784724,-1.0594004392623901, 4.5627875328063965, 4.478946208953857, 0.004394211806356907, -0.7700523734092712, -0.2743053436279297, -0.6249182820320129, 6.454921722412109, 7.360677719116211,17
1628839784740,-0.38567203283309937, 3.4902122020721436, 5.85215425491333, -0.31731536984443665, -0.9127976894378662, -0.27537062764167786, -0.5613827109336853, 6.436679363250732, 7.381742477416992,17
1628839784756,0.09761574864387512, 2.76557993888855, 8.001497268676758, -0.5623259544372559, -0.9884313941001892, -0.19014954566955566, -0.4761803150177002, 6.377774715423584, 7.4386396408081055,17
1628839784772,0.6467791795730591, 2.584721326828003, 10.524535179138184, -0.5410206913948059, -0.7423555254936218, -0.08362318575382233, -0.3524295389652252, 6.27092170715332, 7.535745143890381,17
1628839784789,0.6228244304656982, 2.546393632888794, 11.050342559814453, -0.23529008030891418, -0.3045322000980377, -0.04101264476776123, -0.2976943254470825, 6.21323299407959, 7.5857253074646,17
1628839784805,0.18804506957530975, 2.7703709602355957, 9.246546745300293, 0.11731214821338654, 0.10559424757957458, 0.013315794058144093, -0.2879759669303894, 6.1950178146362305, 7.600981712341309,17
1628839784821,-0.1844518482685089, 3.008721113204956, 7.395441055297852, 0.1663142740726471, 0.24940481781959534, 0.07403581589460373, -0.3043101727962494, 6.201844215393066, 7.594776630401611,17
1628839784838,-0.45214658975601196, 3.3039636611938477, 6.22584867477417, 0.0342215895652771, 0.26218798756599426, 0.1368863582611084, -0.32556918263435364, 6.208690643310547, 7.588298797607422,17
1628839784854,-0.7402028441429138, 3.585432529449463, 5.691058158874512, -0.0774979218840599, 0.199337437748909, 0.18588848412036896, -0.3456842005252838, 6.200621604919434, 7.5940046310424805,17
1628839784871,-0.984541654586792, 4.009432315826416, 5.534753322601318, -0.11691267043352127, 0.09600687772035599, 0.26578325033187866, -0.34513425827026367, 6.186609268188477, 7.605449676513672,17
1628839784887,-1.0605981349945068, 4.58195161819458, 5.311973571777344, -0.10306424647569656, 0.006524738855659962, 0.33822116255760193, -0.3284808099269867, 6.1741814613342285, 7.616277694702148,17
1628839784903,-0.9893326163291931, 5.1682448387146, 5.093985080718994, -0.11371687799692154, -0.08402266353368759, 0.3904190957546234, -0.2951940596103668, 6.1658124923706055, 7.624416351318359,17
1628839784920,-0.7264288663864136, 5.792267322540283, 5.231725215911865, -0.19893796741962433, -0.20546270906925201, 0.38935381174087524, -0.24756234884262085, 6.155235767364502, 7.634652137756348,17
1628839784936,-0.5449713468551636, 6.145001411437988, 5.638956546783447, -0.2767021954059601, -0.28003114461898804, 0.3691138029098511, -0.16608022153377533, 6.127420425415039, 7.65919303894043,17
1628839784952,-0.17666654288768768, 6.492944717407227, 6.2450127601623535, -0.3459443151950836, -0.3087932765483856, 0.32650327682495117, -0.09973391145467758, 6.096475601196289, 7.684995174407959,17
1628839784968,0.09102818369865417, 6.826515197753906, 6.755848407745361, -0.40133804082870483, -0.2533995509147644, 0.2583264112472534, -0.03758268803358078, 6.057497024536133, 7.716309070587158,17
1628839784985,0.22936707735061646, 7.184040069580078, 7.177452564239502, -0.4173169732093811, -0.11385004222393036, 0.15712636709213257, 0.006697108503431082, 6.013462543487549, 7.750762462615967,18
1628839785001,0.4066324830055237, 7.499045372009277, 7.579893112182617, -0.40133804082870483, 0.03848264366388321, 0.0282294824719429, 0.02479511871933937, 5.968301296234131, 7.785555839538574,18
1628839785017,0.3964517116546631, 7.703858852386475, 7.679305553436279, -0.3289000988006592, 0.1141163557767868, -0.11877688020467758, 0.011351199820637703, 5.91517448425293, 7.82602596282959,18
1628839785033,0.1383388787508011, 7.770333290100098, 7.721825122833252, -0.24474430084228516, 0.07363633811473846, -0.26152220368385315, -0.017971418797969818, 5.886427879333496, 7.847659111022949,18
1628839785050,-0.13893775641918182, 7.62780237197876, 7.939813613891602, -0.1904158592224121, -0.08721844851970673, -0.37550538778305054, -0.047308653593063354, 5.86575984954834, 7.862998008728027,18
1628839785066,-0.3874686658382416, 7.531983375549316, 8.574016571044922, -0.23622219264507294, -0.27896589040756226, -0.40320223569869995, -0.062958724796772, 5.844851493835449, 7.878442764282227,18
1628839785082,-0.24853089451789856, 7.460718154907227, 10.04184627532959, -0.3523359000682831, -0.39294907450675964, -0.3723095953464508, -0.05417533218860626, 5.799495220184326, 7.911954879760742,18
1628839785099,0.07605644315481186, 7.346333980560303, 11.618070602416992, -0.3981422483921051, -0.29814061522483826, -0.3573959171772003, -0.04341908544301987, 5.751157760620117, 7.947226524353027,18
1628839785115,-0.34435003995895386, 7.7847065925598145, 12.593629837036133, -0.3043990433216095, 0.044874224811792374, -0.3020022213459015, -0.05823476240038872, 5.705334186553955, 7.980092525482178,18
1628839785131,-0.17726540565490723, 8.00389289855957, 10.917393684387207, -0.2756369411945343, 0.2802974581718445, -0.24128219485282898, -0.10959144681692123, 5.6726226806640625, 8.002840042114258,18
1628839785147,-0.043118614703416824, 7.7799153327941895, 11.315042495727539, -0.4364917278289795, 0.03848264366388321, -0.260456919670105, -0.15409256517887115, 5.631295680999756, 8.031243324279785,18
1628839785164,-0.33955907821655273, 7.531983375549316, 11.855223655700684, -0.4748412072658539, 0.035286854952573776, -0.23915165662765503, -0.1871398538351059, 5.554866790771484, 8.083597183227539,18
1628839785180,0.08084739744663239, 6.821723937988281, 11.556386947631836, -0.5398222804069519, 0.039547909051179886, -0.2263685017824173, -0.21210162341594696, 5.490341663360596, 8.126947402954102,18
1628839785196,0.6689373850822449, 4.910730838775635, 12.261856079101562, -0.5675191283226013, -0.021172111853957176, -0.27963167428970337, -0.23122961819171906, 5.4133501052856445, 8.1779146194458,18
1628839785213,0.7210390567779541, 3.371037244796753, 12.238499641418457, -0.2884201109409332, 0.056592125445604324, -0.23808640241622925, -0.2508905827999115, 5.344329833984375, 8.222609519958496,18
1628839785229,0.6449825763702393, 2.260133981704712, 11.03117847442627, 0.2537990212440491, 0.2227732390165329, -0.08788423985242844, -0.27766263484954834, 5.3225226402282715, 8.235882759094238,18
1628839785245,0.23835010826587677, 2.1367669105529785, 8.25661563873291, 0.9408940076828003, 0.508263885974884, 0.22849902510643005, -0.3277624845504761, 5.40717077255249, 8.178702354431152,18
1628839785262,-0.2874574363231659, 2.9135007858276367, 5.160459518432617, 1.294561505317688, 0.5913544297218323, 0.42131173610687256, -0.3562191128730774, 5.496115207672119, 8.118000984191895,18
1628839785278,-1.2719991207122803, 4.238799095153809, 2.655986785888672, 1.1283804178237915, 0.10772477090358734, 0.533164381980896, -0.3816840350627899, 5.712167263031006, 7.966277122497559,18
1628839785294,-1.57802152633667, 5.025115013122559, 3.3093535900115967, 0.59787917137146, -0.4472775161266327, 0.6205160021781921, -0.3241026997566223, 5.839305877685547, 7.876140117645264,18
1628839785311,-0.7174458503723145, 4.681962966918945, 6.064752578735352, -0.013582110404968262, -0.5857617855072021, 0.700410783290863, -0.2080266922712326, 5.891873359680176, 7.84083366394043,18
1628839785327,0.15690384805202484, 4.519669055938721, 7.892502784729004, -0.20319901406764984, -0.44834280014038086, 0.8506129384040833, -0.034133706241846085, 5.873709678649902, 7.857128620147705,18
1628839785343,2.255342960357666, 4.820301532745361, 8.914772987365723, -0.12863056361675262, -0.42916804552078247, 0.9816403388977051, 0.1037035882472992, 5.846274375915527, 7.876955986022949,18
1628839785359,3.7321555614471436, 5.501815319061279, 9.71007251739502, 0.06418212503194809, -0.44940805435180664, 0.8165245056152344, 0.2516670823097229, 5.832888603210449, 7.883539199829102,18
1628839785376,4.071714878082275, 6.107272624969482, 9.572931289672852, 0.2612558901309967, -0.3183806240558624, 0.42663803696632385, 0.37208905816078186, 5.84409236907959, 7.870467185974121,18
1628839785392,3.163229465484619, 6.068944931030273, 8.394355773925781, 0.34860748052597046, -0.13835109770298004, -0.019707374274730682, 0.4343545734882355, 5.878132343292236, 7.841875076293945,18
1628839785408,1.6768349409103394, 5.3491034507751465, 6.992402076721191, 0.26764747500419617, 0.03315632790327072, -0.37017908692359924, 0.4273224174976349, 5.930232524871826, 7.802938461303711,18
1628839785425,0.649174690246582, 4.610098361968994, 6.092899799346924, 0.10785793513059616, 0.13222584128379822, -0.4990759491920471, 0.38021960854530334, 5.9556379318237305, 7.786007881164551,18
1628839785441,0.07545757293701172, 4.271737098693848, 5.567690849304199, -0.028495799750089645, 0.16311848163604736, -0.4852275252342224, 0.31728193163871765, 5.964598655700684, 7.781966686248779,18
1628839785457,-0.2018190622329712, 4.162144184112549, 5.326346397399902, -0.1435442566871643, 0.11944267153739929, -0.4298338294029236, 0.25593438744544983, 5.957278251647949, 7.789828777313232,18
1628839785473,-0.25451958179473877, 4.319646835327148, 5.354493618011475, -0.21065586805343628, 0.02569948323071003, -0.3669832944869995, 0.2068113535642624, 5.938157558441162, 7.805871486663818,18
1628839785490,-0.11558184027671814, 4.729273319244385, 5.482651710510254, -0.23196113109588623, -0.14793847501277924, -0.3073285222053528, 0.17282089591026306, 5.905847072601318, 7.831169128417969,18
1628839785506,0.18505071103572845, 5.144289970397949, 5.927611827850342, -0.19467690587043762, -0.3279680013656616, -0.2924148440361023, 0.1748405247926712, 5.883349418640137, 7.848040580749512,18
1628839785523,0.2856608033180237, 5.434741973876953, 6.452820301055908, -0.157392680644989, -0.39721015095710754, -0.32650327682495117, 0.19184482097625732, 5.864842891693115, 7.861483573913574,18
1628839785539,0.20421454310417175, 5.539544105529785, 6.9498820304870605, -0.11904320120811462, -0.34607750177383423, -0.32756853103637695, 0.20907451212406158, 5.8501691818237305, 7.871970176696777,18
1628839785555,0.03712991625070572, 5.916233062744141, 6.978627681732178, -0.11478214710950851, -0.14154689013957977, -0.31265485286712646, 0.21368913352489471, 5.839044570922852, 7.880101680755615,18
1628839785571,-0.18744619190692902, 6.216865539550781, 6.77022123336792, -0.21598218381404877, 0.05020054429769516, -0.27110958099365234, 0.1866217851638794, 5.819103717803955, 7.895524978637695,19
1628839785588,-0.11618071049451828, 6.340831756591797, 7.091814041137695, -0.41092541813850403, 0.2366216629743576, -0.19654111564159393, 0.1463809609413147, 5.785907745361328, 7.92072868347168,19
1628839785604,0.03712991625070572, 6.188119888305664, 7.773926734924316, -0.5174517631530762, 0.330364853143692, -0.12942951917648315, 0.09661003947257996, 5.732768535614014, 7.960034370422363,19
1628839785620,0.12755922973155975, 6.064154148101807, 8.574016571044922, -0.49401596188545227, 0.3740406632423401, -0.05379580706357956, 0.045238740742206573, 5.670985698699951, 8.004622459411621,19
1628839785637,0.12755922973155975, 6.197701930999756, 9.58730411529541, -0.3470095992088318, 0.4251733124256134, 0.03249053657054901, -0.01994192972779274, 5.600325584411621, 8.054320335388184,19
1628839785653,-0.0634801834821701, 6.545645236968994, 10.102931022644043, -0.14567478001117706, 0.567918598651886, 0.11877688020467758, -0.07388483732938766, 5.570628643035889, 8.07457447052002,19
1628839785670,-0.5270052552223206, 7.151102542877197, 9.520829200744629, 0.023702112957835197, 0.7415565848350525, 0.2359558641910553, -0.14145614206790924, 5.5656256675720215, 8.077122688293457,19
1628839785686,-0.4701126515865326, 7.623011589050293, 8.909982681274414, -0.028495799750089645, 0.6765754818916321, 0.3392864465713501, -0.20944756269454956, 5.570981502532959, 8.071951866149902,19
1628839785702,-0.19283601641654968, 8.05659294128418, 9.672343254089355, -0.25965797901153564, 0.3165164291858673, 0.40320223569869995, -0.24714602530002594, 5.563385009765625, 8.07612419128418,19
1628839785718,0.22816933691501617, 8.442864418029785, 11.21083927154541, -0.45140540599823, 0.027830010280013084, 0.4330296218395233, -0.23131440579891205, 5.513126850128174, 8.110982894897461,19
1628839785735,0.8156604170799255, 8.309316635131836, 14.047085762023926, -0.5078643560409546, -0.1969406008720398, 0.3435474932193756, -0.1811780333518982, 5.4513349533081055, 8.153909683227539,19
1628839785751,0.7821237444877625, 8.094921112060547, 15.410113334655762, -0.30759483575820923, 0.02569948323071003, 0.2721748352050781, -0.13658073544502258, 5.39556884765625, 8.191781997680664,19
1628839785767,1.1983381509780884, 7.2463226318359375, 14.88969612121582, -0.1254347860813141, 0.26325324177742004, 0.20506322383880615, -0.13019031286239624, 5.364148139953613, 8.212494850158691,19
1628839785784,1.5660440921783447, 5.849758625030518, 14.198599815368652, 0.049268439412117004, 0.37510591745376587, 0.070840023458004, -0.15225595235824585, 5.350457668304443, 8.221041679382324,19
1628839785800,1.3175132274627686, 4.629262447357178, 13.213459968566895, 0.33902010321617126, 0.39854171872138977, -0.004793685860931873, -0.20695197582244873, 5.367941856384277, 8.208440780639648,19
1628839785816,0.9300445318222046, 4.04296875, 12.233709335327148, 0.6351633667945862, 0.405998557806015, -0.011185267008841038, -0.23824627697467804, 5.404974460601807, 8.18325138092041,19
1628839785832,-0.020960437133908272, 3.8621103763580322, 9.833439826965332, 1.277517318725586, 0.4826975464820862, 0.04101264476776123, -0.2883133590221405, 5.514392375946045, 8.108296394348145,19
1628839785849,-0.6419882774353027, 4.062132835388184, 6.9217352867126465, 1.7281237840652466, 0.5444828271865845, 0.08695213496685028, -0.3466784954071045, 5.690614700317383, 7.9832844734191895,19
1628839785865,-1.2300782203674316, 4.596324443817139, 3.7920424938201904, 1.9060227870941162, 0.4358259439468384, 0.09760477393865585, -0.40444082021713257, 5.91126823425293, 7.818532466888428,19
1628839785881,-1.7415128946304321, 5.144289970397949, 1.685219168663025, 1.6492942571640015, 0.15353110432624817, 0.10293108969926834, -0.455030620098114, 6.211338520050049, 7.579468250274658,19
1628839785898,-1.946925163269043, 5.697046756744385, 1.083954095840454, 0.9653950929641724, -0.36525222659111023, 0.06884265691041946, -0.44683021306991577, 6.382503986358643, 7.436403751373291,19
1628839785914,-1.746303915977478, 5.5634989738464355, 1.9834562540054321, 0.3049316704273224, -0.7860313057899475, -0.03129211440682411, -0.3941631615161896, 6.477543354034424, 7.356777667999268,19
1628839785931,-0.8000898361206055, 4.353183269500732, 4.577759265899658, -0.2649843096733093, -1.0672608613967896, -0.11970898509025574, -0.30740100145339966, 6.495238780975342, 7.345304012298584,19
1628839785947,-0.22158177196979523, 3.509376049041748, 6.666018009185791, -0.5099949240684509, -1.0161283016204834, -0.1868205964565277, -0.17215080559253693, 6.434664249420166, 7.402808666229248,19
1628839785963,-0.035333309322595596, 3.0374667644500732, 8.663846969604492, -0.5387570261955261, -0.8733829259872437, -0.17616795003414154, -0.08357279747724533, 6.362176895141602, 7.466714382171631,19
1628839785980,-0.05928809568285942, 2.755998134613037, 9.847213745117188, -0.2564621865749359, -0.4653870165348053, -0.10479529947042465, -0.018327221274375916, 6.300960063934326, 7.518887996673584,19
1628839785996,-0.5946775674819946, 2.932664632797241, 9.018977165222168, 0.07483476400375366, -0.054195281118154526, 0.005992107093334198, 0.007334455382078886, 6.27518892288208, 7.540428161621094,19
1628839786012,-0.9677733182907104, 3.657296895980835, 6.912153244018555, 0.18242637813091278, 0.19720691442489624, 0.13382373750209808, -0.003037920920178294, 6.286343097686768, 7.531135559082031,19
1628839786029,-1.0677845478057861, 4.076505661010742, 5.7000412940979, 0.017310531809926033, 0.24514377117156982, 0.20200060307979584, -0.019019238650798798, 6.2938995361328125, 7.524797439575195,19
1628839786045,-0.9821462035179138, 4.4579854011535645, 5.259871959686279, -0.2798979878425598, 0.1609879434108734, 0.24461114406585693, -0.02823912911117077, 6.278395652770996, 7.5377092361450195,19
1628839786061,-1.0534117221832275, 4.691544532775879, 5.7946624755859375, -0.45353594422340393, 0.015046847052872181, 0.2605900764465332, -0.021956296637654305, 6.2367401123046875, 7.572232246398926,19
1628839786078,-0.919863760471344, 4.867612361907959, 6.666018009185791, -0.4503401517868042, -0.06910897046327591, 0.31917959451675415, 0.0017103106947615743, 6.181708335876465, 7.6172566413879395,19
1628839786094,-0.528203010559082, 5.2059736251831055, 7.115768909454346, -0.38109803199768066, -0.10106687992811203, 0.37031224370002747, 0.05214283987879753, 6.11405611038208, 7.671486854553223,19
1628839786110,0.007186435628682375, 5.759329319000244, 7.475689888000488, -0.29268115758895874, -0.06378265470266342, 0.37137749791145325, 0.09631504863500595, 6.073349952697754, 7.70332670211792,19
1628839786127,0.3946550786495209, 6.149792194366455, 7.5511474609375, -0.21811270713806152, -0.00945421401411295, 0.29893958568573, 0.13344721496105194, 6.041905879974365, 7.727461814880371,19
1628839786143,0.7527791261672974, 6.440843105316162, 7.555938243865967, -0.13715267181396484, 0.02143842913210392, 0.13915005326271057, 0.1571655571460724, 6.020759105682373, 7.743505477905273,19
1628839786159,0.8342254161834717, 6.5648088455200195, 7.560729026794434, -0.10945582389831543, 0.03848264366388321, -0.017443690448999405, 0.16490961611270905, 6.003166198730469, 7.756990909576416,19
1628839786176,0.5856944918632507, 6.464797496795654, 7.570311069488525, -0.0828242376446724, 0.052331071346998215, -0.15060162544250488, 0.1527324914932251, 5.993763446807861, 7.764508247375488,20
1628839786192,0.10779653489589691, 6.31208610534668, 7.489463806152344, -0.025300009176135063, 0.0342215895652771, -0.2347574532032013, 0.13025638461112976, 5.989313125610352, 7.768351078033447,20
1628839786209,-0.1269603669643402, 6.259385585784912, 7.409214973449707, -0.005060001742094755, 0.028895273804664612, -0.23688797652721405, 0.10428012907505035, 5.9895429611206055, 7.768565654754639,20
1628839786225,-0.18385298550128937, 6.373769760131836, 7.347531795501709, -0.02210421860218048, 0.023568956181406975, -0.2251700758934021, 0.07857371866703033, 5.99036979675293, 7.768230438232422,20
1628839786241,-0.26050829887390137, 6.545645236968994, 7.660141468048096, -0.024234745651483536, -0.03502053767442703, -0.21877849102020264, 0.05080061033368111, 5.9892096519470215, 7.769355773925781,20
1628839786258,-0.4515477120876312, 6.850469589233398, 7.85896635055542, -0.04340948909521103, -0.09680582582950592, -0.19960375130176544, 0.03698130324482918, 5.988380432128906, 7.770073890686035,20
1628839786274,-0.4994572699069977, 7.231949806213379, 8.308717727661133, -0.13076110184192657, -0.16178689897060394, -0.15166689455509186, 0.03381795808672905, 5.98176383972168, 7.775182723999023,20
1628839786290,-0.5617397427558899, 7.62780237197876, 9.193846702575684, -0.2884201109409332, -0.14580795168876648, -0.10479529947042465, 0.041552361100912094, 5.951723098754883, 7.798165321350098,20
1628839786307,-0.5473668575286865, 8.475802421569824, 9.553767204284668, -0.4737759530544281, 0.031025800853967667, -0.01957421749830246, 0.04030690714716911, 5.907524108886719, 7.831707954406738,20
1628839786323,0.169480100274086, 8.442864418029785, 9.928060531616211, -0.7752455472946167, -0.029694220051169395, -0.06325002014636993, 0.03457341715693474, 5.86222505569458, 7.865699768066406,20
1628839786339,0.6186323165893555, 8.31889820098877, 12.920013427734375, -0.9350350499153137, -0.1639174222946167, -0.1452753096818924, 0.041209422051906586, 5.724736213684082, 7.966291904449463,20
1628839786356,0.49885839223861694, 8.905191421508789, 13.843470573425293, -0.769919216632843, 0.08855003118515015, -0.14314478635787964, 0.038705646991729736, 5.615882873535156, 8.043411254882812,20
1628839786372,1.4935808181762695, 8.204513549804688, 13.114047050476074, -0.6346307396888733, -0.03608580306172371, -0.3753722310066223, 0.0037933813873678446, 5.500789642333984, 8.122647285461426,20
1628839786388,2.133772611618042, 6.259385585784912, 14.046486854553223, -0.40027275681495667, -0.22357217967510223, -0.7886945009231567, -0.018574265763163567, 5.429391384124756, 8.170524597167969,20
1628839786404,1.5121458768844604, 4.152562141418457, 13.857244491577148, 0.06311686336994171, -0.008388950489461422, -1.0379661321640015, -0.0693242996931076, 5.393259048461914, 8.194148063659668,20
1628839786421,-0.24673429131507874, 2.2511508464813232, 11.57555103302002, 0.706536054611206, 0.4294343590736389, -0.9090692400932312, -0.16865213215351105, 5.417240142822266, 8.176867485046387,20
1628839786437,-1.0354455709457397, 1.6169480085372925, 8.668638229370117, 1.0697908401489258, 0.7681881785392761, -0.4978775382041931, -0.3491726517677307, 5.538741111755371, 8.089284896850586,20
1628839786453,-1.3702137470245361, 2.117603063583374, 6.017442226409912, 1.1699256896972656, 0.8821713328361511, -0.06325002014636993, -0.47887033224105835, 5.666362762451172, 7.9936933517456055,20
1628839786470,-1.7762473821640015, 3.480630397796631, 4.005239963531494, 0.9526119232177734, 0.6829670667648315, 0.383095383644104, -0.572346568107605, 5.79669713973999, 7.893467426300049,20
1628839786486,-1.5947898626327515, 4.720290660858154, 3.602799654006958, 0.623445451259613, 0.273905873298645, 0.6302365064620972, -0.6003082394599915, 5.904866695404053, 7.8107805252075195,20
1628839786502,-0.5144290328025818, 5.46348762512207, 4.388516902923584, 0.3518032729625702, -0.16498269140720367, 0.6824344396591187, -0.5563052892684937, 5.97859525680542, 7.757772445678711,20
1628839786518,0.8432084321975708, 5.377849102020264, 5.8659281730651855, 0.2047969102859497, -0.5293028354644775, 0.5396891236305237, -0.4200333058834076, 6.033173561096191, 7.7240214347839355,20
1628839786535,1.3546431064605713, 5.239510536193848, 7.2624921798706055, 0.23995061218738556, -0.670982837677002, 0.37670382857322693, -0.29799750447273254, 6.060897350311279, 7.707972049713135,20
1628839786551,1.6600666046142578, 5.091589450836182, 8.038626670837402, 0.41998013854026794, -0.6081323027610779, 0.21691428124904633, -0.1836385428905487, 6.095735549926758, 7.684035301208496,20
1628839786567,1.311524510383606, 5.058651924133301, 7.366695404052734, 0.6245107650756836, -0.38868802785873413, 0.014514215290546417, -0.08176366984844208, 6.175332546234131, 7.621987342834473,20
1628839786584,0.7282254695892334, 4.934685707092285, 6.149792194366455, 0.5627254843711853, -0.2683132588863373, -0.11118687689304352, -0.0465724915266037, 6.244124889373779, 7.5660319328308105,20
1628839786600,0.006587565876543522, 4.7107086181640625, 5.58625602722168, 0.3177148401737213, -0.17989638447761536, -0.1548626869916916, -0.03345543146133423, 6.295559406280518, 7.523358345031738,20
1628839786616,-0.30901673436164856, 4.591533660888672, 5.4539055824279785, 0.07483476400375366, -0.11385004222393036, -0.10586056113243103, -0.03031693771481514, 6.320272445678711, 7.502622604370117,20
1628839786633,-0.2802709937095642, 4.686753749847412, 5.6191935539245605, -0.13289162516593933, -0.1074584573507309, -0.06325002014636993, -0.028108736500144005, 6.318258285522461, 7.504327774047852,20
1628839786649,-0.09402253478765488, 4.825092792510986, 5.988696575164795, -0.2607232332229614, -0.13728584349155426, -0.054727911949157715, -0.018010593950748444, 6.286128997802734, 7.531292915344238,20
1628839786665,-0.09402253478765488, 4.83467435836792, 6.358199119567871, -0.2905506193637848, -0.1777658462524414, -0.09414266049861908, -0.007735866587609053, 6.252461910247803, 7.559283256530762,20
1628839786682,-0.1563049703836441, 4.83467435836792, 6.485758304595947, -0.2649843096733093, -0.21398481726646423, -0.09840371459722519, 0.005140287335962057, 6.21842622756958, 7.587308883666992,20
1628839786698,-0.24254220724105835, 5.101171493530273, 6.585170745849609, -0.24474430084228516, -0.2342248111963272, -0.03555316850543022, 0.021963605657219887, 6.187539100646973, 7.612488746643066,20
1628839786714,-0.18505071103572845, 5.5305609703063965, 6.774413108825684, -0.2479400783777237, -0.2544648349285126, 0.027297377586364746, 0.056462470442056656, 6.149001121520996, 7.643474578857422,20
1628839786730,-0.09941235929727554, 5.964142799377441, 7.148706912994385, -0.234091654419899, -0.21718059480190277, 0.051798440515995026, 0.0877041444182396, 6.121212482452393, 7.6654534339904785,20
1628839786747,-0.1754688024520874, 6.497735500335693, 7.4942545890808105, -0.18828532099723816, -0.10213214159011841, 0.04540685936808586, 0.11110324412584305, 6.09758996963501, 7.683955192565918,20
1628839786763,-0.1281581073999405, 6.92233419418335, 7.655350685119629, -0.17337164282798767, 0.035286854952573776, 0.024101587012410164, 0.11901364475488663, 6.077932834625244, 7.699394226074219,21
1628839786779,-0.31919750571250916, 7.065464019775391, 7.683497428894043, -0.20213375985622406, 0.22490376234054565, -0.0014647373463958502, 0.10558697581291199, 6.058775424957275, 7.714674949645996,21
1628839786796,-0.5533555150032043, 7.127147674560547, 7.655350685119629, -0.2426137626171112, 0.3367564380168915, 0.03049316816031933, 0.05757402628660202, 6.027115821838379, 7.7399396896362305,21
1628839786812,-0.6635475754737854, 7.184638977050781, 7.906276702880859, -0.2330264002084732, 0.31545117497444153, 0.09973529726266861, 0.022066807374358177, 6.00139045715332, 7.760085582733154,21
1628839786828,-0.6443837285041809, 7.19362211227417, 8.403338432312012, -0.13715267181396484, 0.18229322135448456, 0.18708691000938416, 0.0018974215490743518, 5.9810709953308105, 7.775789260864258,21
1628839786845,-0.7294232249259949, 7.47029972076416, 8.933338165283203, 2.6631588116288185E-4, 0.07150581479072571, 0.2850911617279053, 0.00467309495434165, 5.972954273223877, 7.782024383544922,21
1628839786861,-0.5719205141067505, 8.075757026672363, 8.80098819732666, 0.10785793513059616, 0.04700475186109543, 0.39374804496765137, 0.03327358141541481, 5.986103534698486, 7.771844387054443,21
1628839786878,-0.23236142098903656, 8.39016342163086, 8.748886108398438, -0.0029294746927917004, -0.07976160943508148, 0.4672512114048004, 0.07345155626535416, 5.996200084686279, 7.7637810707092285,21
1628839786894,0.6371973156929016, 8.681214332580566, 9.847213745117188, -0.3608580231666565, -0.28003114461898804, 0.5077311992645264, 0.14057350158691406, 5.978888034820557, 7.77619743347168,21
1628839786910,1.1252760887145996, 8.542875289916992, 12.356476783752441, -0.5504749417304993, -0.2299637645483017, 0.4161185622215271, 0.2213182896375656, 5.922828197479248, 7.817111492156982,21
1628839786927,0.89531010389328, 8.462027549743652, 12.66429615020752, -0.4450138509273529, 0.3367564380168915, 0.29041746258735657, 0.25732603669166565, 5.8580322265625, 7.86469030380249,21
1628839786943,1.3594341278076172, 7.294232368469238, 10.514952659606934, -0.5110601782798767, 0.7298386693000793, 0.10825740545988083, 0.19191643595695496, 5.7839179039001465, 7.921209812164307,21
1628839786959,1.765467643737793, 5.754538536071777, 10.183178901672363, -0.7507444620132446, 0.672314465045929, -0.057923704385757446, 0.11131315678358078, 5.7019805908203125, 7.9819254875183105,21
1628839786975,1.5744283199310303, 4.4627766609191895, 10.940749168395996, -0.6687191724777222, 0.4763059616088867, -0.13355740904808044, 0.03775634989142418, 5.602451801300049, 8.052777290344238,21
1628839786992,0.7713440656661987, 4.071714878082275, 11.324625015258789, -0.07962844520807266, 0.34740906953811646, -0.09414266049861908, -0.01909203641116619, 5.537600040435791, 8.097575187683105,21
1628839787008,-0.12276827543973923, 4.271737098693848, 9.359733581542969, 0.8546076416969299, 0.4294343590736389, -0.013182636350393295, -0.08423703908920288, 5.592442035675049, 8.059379577636719,21
1628839787024,-0.7485870718955994, 4.5675787925720215, 6.5145039558410645, 1.277517318725586, 0.43369540572166443, 0.014514215290546417, -0.14045187830924988, 5.728923797607422, 7.962148666381836,21
1628839787041,-1.1600104570388794, 4.820301532745361, 4.355578899383545, 1.2050793170928955, 0.3037332594394684, 0.04966791346669197, -0.18504421412944794, 5.885394096374512, 7.846273422241211,21
1628839787057,-1.5612531900405884, 5.158663272857666, 2.750608205795288, 0.6298370361328125, -0.02010684832930565, 0.13595426082611084, -0.2069706916809082, 6.010119438171387, 7.750596523284912,21
1628839787073,-1.083355188369751, 5.2107648849487305, 3.1386756896972656, -0.05832317844033241, -0.5101280808448792, 0.17856480181217194, -0.17529602348804474, 6.064629554748535, 7.708804130554199,21
1628839787090,0.034734439104795456, 4.2813191413879395, 6.0030694007873535, -0.6964160203933716, -0.9958882331848145, 0.12210582941770554, -0.038859426975250244, 6.009002685546875, 7.754127502441406,21
1628839787106,0.6276153922080994, 3.723771333694458, 9.037541389465332, -0.9382308721542358, -1.1482208967208862, 0.07843002676963806, 0.10314839333295822, 5.900160312652588, 7.836681842803955,21
1628839787122,1.2636148929595947, 3.3854100704193115, 12.403787612915039, -0.7134602665901184, -0.9415597915649414, 0.04114580526947975, 0.24310648441314697, 5.783509254455566, 7.920102596282959,21
1628839787139,1.3109256029129028, 3.223116397857666, 13.133211135864258, -0.1435442566871643, -0.4195806682109833, -0.0025300008710473776, 0.337536096572876, 5.711650371551514, 7.968640327453613,21
1628839787155,0.6946887969970703, 3.213534355163574, 11.201257705688477, 0.35286855697631836, 0.15566162765026093, 0.010253161191940308, 0.36016833782196045, 5.710279941558838, 7.968631267547607,21
1628839787171,0.12576262652873993, 3.2853987216949463, 8.128458023071289, 0.44767698645591736, 0.5114596486091614, 0.06777739524841309, 0.30703115463256836, 5.767001628875732, 7.9299139976501465,21
1628839787188,-0.47670021653175354, 3.5710597038269043, 6.182730197906494, 0.2516685128211975, 0.605202853679657, 0.13915005326271057, 0.24554769694805145, 5.804116249084473, 7.904938697814941,21
1628839787204,-0.8779428601264954, 3.909420967102051, 5.3922224044799805, 0.04607264697551727, 0.5519396662712097, 0.2563290297985077, 0.18597713112831116, 5.821180820465088, 7.894008636474609,21
1628839787220,-0.9641801118850708, 4.157352924346924, 5.34970235824585, -0.10093371570110321, 0.4028027653694153, 0.38522592186927795, 0.14745917916297913, 5.818088531494141, 7.897101402282715,21
1628839787237,-0.7443949580192566, 4.500505447387695, 5.628775596618652, -0.12330425530672073, 0.265383780002594, 0.504535436630249, 0.1387518048286438, 5.80388879776001, 7.907701015472412,21
1628839787253,-0.34734439849853516, 5.015532970428467, 5.832391262054443, -0.05193159729242325, 0.09494160860776901, 0.5908218026161194, 0.1693532019853592, 5.790389060974121, 7.916996002197266,21
1628839787269,0.1682823747396469, 5.36826753616333, 5.870120048522949, -0.01038631983101368, -0.09041424095630646, 0.6036049723625183, 0.22262689471244812, 5.7889404296875, 7.916736602783203,21
1628839787286,0.727626621723175, 5.8210129737854, 6.097690582275391, -0.012516846880316734, -0.282161682844162, 0.5546028017997742, 0.29879653453826904, 5.789706230163574, 7.913667678833008,21
1628839787302,1.1630048751831055, 6.2120747566223145, 6.642063140869141, -0.03914843499660492, -0.3950796127319336, 0.4576638340950012, 0.38836798071861267, 5.788469314575195, 7.9106831550598145,21
1628839787319,1.3779990673065186, 6.5312724113464355, 7.252910137176514, -0.0828242376446724, -0.32690274715423584, 0.26165536046028137, 0.47318974137306213, 5.783625602722168, 7.90960693359375,21
1628839787335,1.525919795036316, 6.631283283233643, 7.693079471588135, -0.1254347860813141, -0.21505007147789001, 0.07416897267103195, 0.5451180934906006, 5.769688606262207, 7.915153503417969,21
1628839787351,1.253434181213379, 6.583972930908203, 8.053000450134277, -0.14460952579975128, -0.013715268112719059, -0.10692582279443741, 0.5609225630760193, 5.755421161651611, 7.9244303703308105,22
1628839787368,1.048021912574768, 6.550436019897461, 7.958378791809082, -0.1818937510251999, 0.10772477090358734, -0.21345217525959015, 0.5441796183586121, 5.739330291748047, 7.937258720397949,22
1628839787384,0.7659542560577393, 6.416888236999512, 8.015271186828613, -0.20213375985622406, 0.11198582500219345, -0.28482484817504883, 0.4970884919166565, 5.712604999542236, 7.959595203399658,22
1628839787400,0.4647228419780731, 6.436051845550537, 8.251824378967285, -0.17763268947601318, -0.011584741063416004, -0.2965427339076996, 0.46599358320236206, 5.693150520324707, 7.975399971008301,22
1628839787417,0.3832765817642212, 6.507317543029785, 8.772841453552246, -0.13715267181396484, -0.1585911065340042, -0.26565009355545044, 0.4519541263580322, 5.6771087646484375, 7.98763370513916,22
1628839787433,0.46951380372047424, 6.583972930908203, 9.359733581542969, -0.15100111067295074, -0.22676797211170197, -0.2432795614004135, 0.4534325897693634, 5.662466049194336, 7.997936725616455,22
1628839787449,0.512632429599762, 6.755249500274658, 10.031664848327637, -0.18508954346179962, -0.1873532235622406, -0.24647535383701324, 0.4592941403388977, 5.643763542175293, 8.010809898376465,22
1628839787466,-0.03712991625070572, 7.623011589050293, 10.486207008361816, -0.1957421749830246, 0.08215844631195068, -0.19960375130176544, 0.4429406523704529, 5.614070892333984, 8.032567024230957,22
1628839787482,0.45034995675086975, 7.5511474609375, 9.96099853515625, -0.30120325088500977, 0.13116057217121124, -0.22410480678081512, 0.4073299169540405, 5.5865678787231445, 8.053598403930664,22
1628839787498,0.1443275809288025, 7.594265937805176, 10.79881763458252, -0.4684496223926544, 0.007590002380311489, -0.24754060804843903, 0.3792589008808136, 5.541208744049072, 8.0862398147583,22
1628839787515,0.32099413871765137, 7.894299507141113, 10.813190460205078, -0.6143907308578491, 0.031025800853967667, -0.16018900275230408, 0.35786569118499756, 5.478831768035889, 8.129602432250977,22
1628839787532,1.645094871520996, 7.065464019775391, 11.163528442382812, -0.9307740330696106, -0.30346694588661194, -0.2922816872596741, 0.34998685121536255, 5.391279220581055, 8.18826675415039,22
1628839787548,2.4433882236480713, 5.430549621582031, 13.194295883178711, -1.0117340087890625, -0.6241112947463989, -0.5564670562744141, 0.38795343041419983, 5.225845813751221, 8.29313850402832,22
1628839787564,2.524834394454956, 3.394991874694824, 15.149604797363281, -0.4982770085334778, -0.5335638523101807, -0.9026776552200317, 0.4185152053833008, 5.1174211502075195, 8.359004020690918,22
1628839787581,0.9042931795120239, 1.969682216644287, 13.971029281616211, 0.2719085216522217, 0.008655265904963017, -0.9303745031356812, 0.3909362256526947, 5.0878472328186035, 8.37837028503418,22
1628839787597,-0.3239884674549103, 1.2025302648544312, 10.585619926452637, 0.8258455395698547, 0.6925544738769531, -0.5511407256126404, 0.28964826464653015, 5.145952224731445, 8.346939086914062,22
1628839787613,-1.0983269214630127, 1.4834001064300537, 6.589961528778076, 0.9717866778373718, 1.013198733329773, -0.025965798646211624, 0.10311652719974518, 5.285088062286377, 8.26397705078125,22
1628839787630,-1.672044038772583, 2.446382522583008, 4.398098468780518, 0.824780285358429, 0.8587355613708496, 0.4246406853199005, -0.00833169836550951, 5.391009330749512, 8.195917129516602,22
1628839787646,-1.179773211479187, 3.8189916610717773, 3.465059757232666, 0.5755085945129395, 0.2504700720310211, 0.7974829077720642, -0.04023030772805214, 5.481180191040039, 8.135794639587402,22
1628839787662,-0.23835010826587677, 4.910730838775635, 3.9243927001953125, 0.4029359221458435, -0.3748396039009094, 0.852876603603363, 0.025894688442349434, 5.552047252655029, 8.087657928466797,22
1628839787679,0.8180559277534485, 5.468278408050537, 5.22154426574707, 0.26977798342704773, -0.8478165864944458, 0.7399587035179138, 0.16886526346206665, 5.601986408233643, 8.05141830444336,22
1628839787695,1.7025864124298096, 5.382640361785889, 6.637272357940674, 0.17603479325771332, -1.0427597761154175, 0.5439502000808716, 0.4084058105945587, 5.639901161193848, 8.016284942626953,22
1628839787711,2.2948684692382812, 5.177826881408691, 7.569712162017822, 0.1387505680322647, -0.9820398092269897, 0.3170490562915802, 0.5771947503089905, 5.655506610870361, 7.9948859214782715,22
1628839787728,2.2469589710235596, 4.967623710632324, 8.16678524017334, 0.14727267622947693, -0.6592649817466736, 0.05925528332591057, 0.7026779055595398, 5.6685566902160645, 7.975576400756836,22
1628839787744,1.6259310245513916, 4.949058532714844, 7.811655521392822, 0.14088110625743866, -0.2683132588863373, -0.12929636240005493, 0.7670019865036011, 5.6846022605896, 7.958210468292236,22
1628839787760,0.4641239643096924, 4.844256401062012, 7.067859649658203, 0.03968106582760811, 0.10239845514297485, -0.2869553565979004, 0.7680919170379639, 5.698978424072266, 7.947817325592041,22
1628839787776,-0.1473219245672226, 4.524460315704346, 6.5474419593811035, -0.08602003008127213, 0.35806170105934143, -0.30186906456947327, 0.6962838172912598, 5.700577735900879, 7.953283309936523,22
1628839787793,-0.6875023245811462, 4.510087013244629, 6.036006927490234, -0.22237375378608704, 0.5061333179473877, -0.24541008472442627, 0.6116138100624084, 5.683228492736816, 7.972637176513672,22
1628839787809,-0.9024965167045593, 4.705917835235596, 5.496425628662109, -0.3853590786457062, 0.4432827830314636, -0.11970898509025574, 0.5280559062957764, 5.650049686431885, 8.002138137817383,22
1628839787825,-0.8072762489318848, 4.877194404602051, 5.908447742462158, -0.4982770085334778, 0.22916480898857117, -0.03342264145612717, 0.470564067363739, 5.600615501403809, 8.040385246276855,22
1628839787842,-0.4257963001728058, 5.025115013122559, 6.958865165710449, -0.5418196320533752, 0.020506322383880615, 0.05712475627660751, 0.44625455141067505, 5.5170207023620605, 8.099349021911621,22
1628839787858,-0.11019201576709747, 5.096380710601807, 7.953587532043457, -0.5056006908416748, -0.049801070243120193, 0.12636688351631165, 0.4550967216491699, 5.451314449310303, 8.143228530883789,22
1628839787874,0.17187558114528656, 5.3538947105407715, 8.724931716918945, -0.3916175067424774, -0.028495799750089645, 0.18602164089679718, 0.47228914499282837, 5.39376974105835, 8.180482864379883,22
1628839787890,0.36770597100257874, 5.649735927581787, 8.99502182006836, -0.22863218188285828, 0.10785793513059616, 0.2233058661222458, 0.4841021001338959, 5.352871417999268, 8.20661449432373,22
1628839787907,0.4012426435947418, 5.873713493347168, 8.952502250671387, -0.13915005326271057, 0.2335590273141861, 0.25313323736190796, 0.4822755753993988, 5.3277668952941895, 8.223041534423828,22
1628839787923,0.47250813245773315, 6.0306172370910645, 8.918965339660645, -0.10186582803726196, 0.3763043284416199, 0.2798979878425598, 0.4593077301979065, 5.306370735168457, 8.238177299499512,22
1628839787939,0.46771717071533203, 6.15458345413208, 8.758468627929688, -0.0720384493470192, 0.455133855342865, 0.3043990433216095, 0.4291895925998688, 5.294875621795654, 8.247193336486816,22
1628839787956,0.3629150092601776, 6.273758411407471, 8.677620887756348, -0.018775269389152527, 0.4135885536670685, 0.3225085437297821, 0.3981668949127197, 5.2884745597839355, 8.252854347229004,23
1628839787972,0.2239772379398346, 6.359995365142822, 8.758468627929688, 0.050466857850551605, 0.3273022174835205, 0.34807485342025757, 0.3769349157810211, 5.289807319641113, 8.252997398376465,23
1628839787988,0.08084739744663239, 6.359995365142822, 8.947710990905762, 0.09840371459722519, 0.26338639855384827, 0.3992075026035309, 0.3681310713291168, 5.2988152503967285, 8.247614860534668,23
1628839788005,0.21439532935619354, 6.497735500335693, 9.439982414245605, 0.09414266049861908, 0.28256115317344666, 0.4833633303642273, 0.3704114854335785, 5.314609527587891, 8.237343788146973,23
1628839788021,0.7785305380821228, 6.783995151519775, 9.828049659729004, 0.037683695554733276, 0.31984537839889526, 0.5366265177726746, 0.37297022342681885, 5.319697856903076, 8.233942985534668,23
1628839788037,1.1372534036636353, 7.151102542877197, 10.661676406860352, -0.06990791857242584, 0.29214853048324585, 0.5398222804069519, 0.3817720413208008, 5.3161797523498535, 8.235812187194824,23
1628839788054,1.4426769018173218, 8.014073371887207, 11.073099136352539, -0.14660689234733582, 0.28788745403289795, 0.5153212547302246, 0.39009028673171997, 5.301280498504639, 8.245019912719727,23
1628839788070,1.7343264818191528, 8.090129852294922, 11.897144317626953, -0.17856480181217194, 0.12277162075042725, 0.3523359000682831, 0.4013773202896118, 5.279010772705078, 8.258756637573242,23
1628839788086,1.7774450778961182, 7.756559371948242, 13.303290367126465, -0.03368895873427391, 0.05139896646142006, 0.17976321280002594, 0.4229086637496948, 5.25590181350708, 8.272408485412598,23
1628839788103,1.887038230895996, 7.027136325836182, 13.094883918762207, 0.11544793099164963, 0.2953443229198456, 0.0402136966586113, 0.41474083065986633, 5.261491298675537, 8.269268989562988,23
1628839788119,2.2745068073272705, 5.768911361694336, 12.730172157287598, 0.04301001504063606, 0.455133855342865, -0.10785793513059616, 0.37133094668388367, 5.269543170928955, 8.266204833984375,23
1628839788135,2.0924506187438965, 4.377138137817383, 12.47924518585205, 0.0834900289773941, 0.5861612558364868, -0.24208113551139832, 0.298328161239624, 5.269342422485352, 8.269288063049316,23
1628839788151,1.2276827096939087, 2.9895572662353516, 11.509077072143555, 0.4978775382041931, 0.6159886121749878, -0.2101232260465622, 0.20619621872901917, 5.285777568817139, 8.26160717010498,23
1628839788168,0.3479432463645935, 2.546393632888794, 9.785530090332031, 1.0816419124603271, 0.5946833491325378, 0.009321056306362152, 0.09448867291212082, 5.394390106201172, 8.19315242767334,23
1628839788184,-0.06288131326436996, 2.8086986541748047, 6.859452724456787, 1.6931031942367554, 0.6095970273017883, 0.30120325088500977, 0.03308413177728653, 5.560039043426514, 8.082139015197754,23
1628839788200,-0.06767226755619049, 3.6333420276641846, 4.492720127105713, 1.888046383857727, 0.5552685856819153, 0.41944751143455505, -0.007732650730758905, 5.776092529296875, 7.929236888885498,23
1628839788216,-0.26889246702194214, 4.629262447357178, 2.5703485012054443, 1.6813852787017822, 0.47643911838531494, 0.45353594422340393, -0.03288240358233452, 6.002242088317871, 7.759389877319336,23
1628839788233,-0.4982595443725586, 5.482651710510254, 1.6708463430404663, 1.137035608291626, 0.22716744244098663, 0.41092541813850403, -0.039893507957458496, 6.191049098968506, 7.609561443328857,23
1628839788249,-0.7755361795425415, 5.95456075668335, 2.2200098037719727, 0.3902859091758728, -0.20426428318023682, 0.2905506193637848, -0.0037214604672044516, 6.330991268157959, 7.493640899658203,23
1628839788265,-0.46951380372047424, 5.587453842163086, 3.663884401321411, -0.11784477531909943, -0.5994770526885986, 0.1818937510251999, 0.06401503086090088, 6.3524932861328125, 7.4751482009887695,23
1628839788281,0.6348018050193787, 4.38192892074585, 6.021634101867676, -0.5918870568275452, -1.0436919927597046, 0.08175897598266602, 0.16876760125160217, 6.313994407653809, 7.5060715675354,23
1628839788297,1.2702025175094604, 3.79563570022583, 9.681326866149902, -0.8187881708145142, -1.2791152000427246, 0.009321056306362152, 0.31272780895233154, 6.226289749145508, 7.574406147003174,23
1628839788314,1.8103829622268677, 3.5668675899505615, 12.905640602111816, -0.664324939250946, -1.0298435688018799, -0.06524739414453506, 0.4559767246246338, 6.123420238494873, 7.650615215301514,23
1628839788330,1.4133323431015015, 3.328517436981201, 13.700939178466797, -0.03688475117087364, -0.2905506193637848, -0.1536642611026764, 0.5511360764503479, 6.048813819885254, 7.703519344329834,23
1628839788346,0.691694438457489, 3.2374892234802246, 11.191676139831543, 0.44035330414772034, 0.3645864427089691, -0.0822916105389595, 0.5283281207084656, 6.068346977233887, 7.689742088317871,23
1628839788362,0.20900550484657288, 3.590223550796509, 8.061983108520508, 0.5223786234855652, 0.757668673992157, 0.0306263267993927, 0.4543415307998657, 6.119126796722412, 7.654147624969482,23
1628839788379,-0.06827113777399063, 4.000449180603027, 6.282142639160156, 0.39348170161247253, 0.8940224051475525, 0.11158635467290878, 0.39337319135665894, 6.150993824005127, 7.631948947906494,23
1628839788395,-0.3599206507205963, 4.496313095092773, 4.8047308921813965, 0.17403742671012878, 0.8748476505279541, 0.21598218381404877, 0.2995160222053528, 6.184275150299072, 7.609280109405518,23
1628839788411,-0.24972863495349884, 5.301793098449707, 4.099262714385986, -0.031558431684970856, 0.463655948638916, 0.24474430084228516, 0.21092984080314636, 6.200957775115967, 7.598667621612549,23
1628839788428,-0.13534453511238098, 5.4922332763671875, 4.302878379821777, -0.05392896756529808, 0.2047969102859497, 0.2095905989408493, 0.18822450935840607, 6.202988624572754, 7.597606182098389,23
1628839788444,0.10360444337129593, 5.587453842163086, 5.074821472167969, -0.010253161191940308, -0.19893796741962433, 0.1392832100391388, 0.2045750766992569, 6.203983783721924, 7.596370220184326,23
1628839788460,0.2946438491344452, 5.606617450714111, 5.685668468475342, 0.05259738489985466, -0.34807485342025757, 0.09347687661647797, 0.24761585891246796, 6.209415912628174, 7.590648651123047,23
1628839788476,0.5431747436523438, 5.788074970245361, 6.145001411437988, 0.06325002014636993, -0.3800327479839325, 0.057257913053035736, 0.31678080558776855, 6.2220354080200195, 7.577732563018799,23
1628839788493,0.7012763619422913, 5.935397148132324, 6.3054986000061035, 0.02703106217086315, -0.28735482692718506, 0.014647373929619789, 0.35967570543289185, 6.229193687438965, 7.569933891296387,23
1628839788509,0.8827338218688965, 6.273758411407471, 6.329452991485596, -0.05392896756529808, -0.19467690587043762, -0.07376950234174728, 0.38683924078941345, 6.230964183807373, 7.567136287689209,24
1628839788525,0.734214186668396, 6.450424671173096, 6.447430610656738, -0.14873741567134857, -0.1488705724477768, -0.15579478442668915, 0.39895087480545044, 6.223813056945801, 7.572390556335449,24
1628839788542,0.6102481484413147, 6.483961582183838, 6.892989635467529, -0.22969745099544525, -0.11797793209552765, -0.2474074512720108, 0.39827960729599, 6.206593990325928, 7.586545467376709,24
1628839788558,0.41920873522758484, 6.469588756561279, 7.337949752807617, -0.24035008251667023, -0.07536739110946655, -0.29321378469467163, 0.38131508231163025, 6.17452335357666, 7.61353874206543,24
1628839788574,0.19403375685214996, 6.43126106262207, 7.375678539276123, -0.23928481340408325, -0.06791055202484131, -0.29747483134269714, 0.359977126121521, 6.149804592132568, 7.634554862976074,24
1628839788591,0.11318635940551758, 6.450424671173096, 7.403825283050537, -0.2233058661222458, -0.2000032216310501, -0.2516685128211975, 0.34704628586769104, 6.125725746154785, 7.654485702514648,24
1628839788607,0.05090392008423805, 6.798367977142334, 7.867949485778809, -0.231827974319458, -0.3406180143356323, -0.18775269389152527, 0.35536161065101624, 6.102545261383057, 7.672599792480469,24
1628839788623,0.06527678668498993, 7.432570934295654, 8.857281684875488, -0.27656903862953186, -0.3747064471244812, -0.11211898922920227, 0.38234126567840576, 6.075829029083252, 7.692478656768799,24
1628839788639,0.1796608865261078, 7.947000026702881, 9.601078033447266, -0.29574379324913025, -0.17017585039138794, -0.08761792629957199, 0.41486844420433044, 6.033278942108154, 7.724217891693115,24
1628839788656,-0.20241793990135193, 8.65246868133545, 9.122581481933594, -0.3362238109111786, 0.18988321721553802, -0.06950844824314117, 0.4029184877872467, 5.999890327453613, 7.75081205368042,24
1628839788672,-0.288655161857605, 8.723733901977539, 8.705767631530762, -0.5183838605880737, 0.24847272038459778, -0.06631265580654144, 0.3672232925891876, 5.95690393447876, 7.78566312789917,24
1628839788688,-0.3078189790248871, 8.95310115814209, 8.9806489944458, -0.8379629254341125, 0.3549990653991699, -0.01837579533457756, 0.31214746832847595, 5.856642723083496, 7.863739967346191,24
1628839788704,0.9635812640190125, 8.595576286315918, 8.653666496276855, -1.2938957214355469, 0.31025800108909607, -0.06205160170793533, 0.26611849665641785, 5.730953216552734, 7.9574785232543945,24
1628839788721,2.2685182094573975, 6.693565845489502, 10.675450325012207, -1.8297232389450073, -0.22024323046207428, -0.4018706679344177, 0.2465326488018036, 5.539711952209473, 8.092398643493652,24
1628839788737,2.612269401550293, 5.005951404571533, 14.292622566223145, -1.7413064241409302, -0.5014728307723999, -0.7182539105415344, 0.25656822323799133, 5.306970596313477, 8.246596336364746,24
1628839788753,1.503761649131775, 3.2045514583587646, 15.817344665527344, -0.9423587322235107, -0.2809632420539856, -0.8759129047393799, 0.25314557552337646, 5.115992546081543, 8.3665189743042,24
1628839788769,-0.32219186425209045, 1.9409364461898804, 13.55900764465332, 0.27523747086524963, 0.277234822511673, -0.5616601705551147, 0.17692768573760986, 5.046658515930176, 8.410472869873047,24
1628839788786,-0.6857057213783264, 1.7840327024459839, 8.904592514038086, 0.9495492577552795, 0.6085317730903625, -0.040746331214904785, 0.08716181665658951, 5.1216511726379395, 8.366433143615723,24
1628839788802,-1.020473837852478, 2.727851152420044, 5.870120048522949, 0.9570060968399048, 0.4508727788925171, 0.34807485342025757, 0.019097885116934776, 5.237712860107422, 8.294703483581543,24
1628839788818,-0.5521578192710876, 3.97170352935791, 4.610697269439697, 0.6054691672325134, -0.13821794092655182, 0.678306519985199, 0.017386112362146378, 5.3427653312683105, 8.227434158325195,24
1628839788835,0.42819178104400635, 4.901149272918701, 5.794063568115234, 0.3572627604007721, -0.7209171056747437, 0.7177212834358215, 0.15817596018314362, 5.429515838623047, 8.16893196105957,24
1628839788851,1.127671480178833, 5.520979404449463, 7.465508937835693, 0.324239581823349, -1.0064077377319336, 0.5994770526885986, 0.3290041387081146, 5.469770908355713, 8.136919975280762,24
1628839788867,1.7391173839569092, 5.806640148162842, 8.360219955444336, 0.42970067262649536, -1.0575404167175293, 0.3938812017440796, 0.5055029392242432, 5.513730525970459, 8.098108291625977,24
1628839788883,2.0595126152038574, 5.968933582305908, 8.611146926879883, 0.48722490668296814, -0.942491888999939, 0.17976321280002594, 0.6624538898468018, 5.567471504211426, 8.049877166748047,24
1628839788900,1.925365924835205, 5.801848888397217, 8.260807991027832, 0.4552670121192932, -0.6601970791816711, -0.12064109742641449, 0.8052632212638855, 5.6446852684021, 7.9828057289123535,24
1628839788916,1.1606093645095825, 5.540143013000488, 7.702661037445068, 0.32743537425994873, -0.36831486225128174, -0.3560643196105957, 0.8448193669319153, 5.6945719718933105, 7.943188667297363,24
1628839788933,0.33416926860809326, 4.98678731918335, 7.209791660308838, 0.1314268857240677, 0.0684431791305542, -0.5169191360473633, 0.8240184783935547, 5.728151798248291, 7.92119836807251,24
1628839788949,-0.3880675137042999, 4.505296230316162, 6.717520713806152, -0.04221106693148613, 0.4466117322444916, -0.5520728230476379, 0.7458375096321106, 5.740641117095947, 7.9199042320251465,24
1628839788965,-0.9138750433921814, 4.300482749938965, 6.13062858581543, -0.24035008251667023, 0.7587339282035828, -0.49987491965293884, 0.5763460397720337, 5.723959922790527, 7.94608211517334,24
1628839788981,-1.2815810441970825, 4.343601703643799, 5.803645610809326, -0.37031224370002747, 0.8556729555130005, -0.4040012061595917, 0.4788086414337158, 5.702535152435303, 7.967932224273682,24
1628839788998,-1.606767177581787, 4.5292510986328125, 5.656922817230225, -0.44701120257377625, 0.8056055307388306, -0.31664958596229553, 0.2859575152397156, 5.641987323760986, 8.020118713378906,24
1628839789014,-1.7498971223831177, 4.662798881530762, 5.524572372436523, -0.46938174962997437, 0.5968139171600342, -0.255929559469223, 0.16119809448719025, 5.589850902557373, 8.060006141662598,24
1628839789030,-1.7451061010360718, 4.5675787925720215, 5.950967788696289, -0.46618595719337463, 0.29214853048324585, -0.16325163841247559, 0.07357726991176605, 5.535182952880859, 8.098916053771973,24
1628839789046,-1.319908618927002, 4.40049409866333, 6.7462663650512695, -0.3969438076019287, 0.037550538778305054, 0.02316948212683201, 0.02813914231956005, 5.464536666870117, 8.14703369140625,24
1628839789063,-0.7797282934188843, 4.796347141265869, 7.522401332855225, -0.33302801847457886, -0.0828242376446724, 0.19787269830703735, 0.04020194709300995, 5.419225215911865, 8.177193641662598,24
1628839789079,-0.3114122152328491, 5.073024749755859, 8.090728759765625, -0.2414153516292572, -0.0306263267993927, 0.33422642946243286, 0.06840921193361282, 5.382261753082275, 8.201383590698242,24
1628839789095,0.07605644315481186, 5.1682448387146, 8.369802474975586, -0.16791217029094696, 0.016245268285274506, 0.40453383326530457, 0.0990264043211937, 5.354743480682373, 8.219064712524414,24
1628839789112,0.4485533535480499, 5.263465404510498, 8.663248062133789, -0.08801739662885666, 0.08016107976436615, 0.44394856691360474, 0.1290079951286316, 5.336471080780029, 8.230525016784668,24
1628839789128,0.716248095035553, 5.253883361816406, 8.961484909057617, 0.030226852744817734, 0.17603479325771332, 0.4631233215332031, 0.16002514958381653, 5.327960968017578, 8.235492706298828,25
1628839789144,0.5587453842163086, 5.568289756774902, 8.502751350402832, 0.12823109328746796, 0.31025800108909607, 0.49934226274490356, 0.16990284621715546, 5.337118625640869, 8.229362487792969,25
1628839789161,0.3862709105014801, 5.878504276275635, 8.170977592468262, 0.11970898509025574, 0.3091927468776703, 0.5462138652801514, 0.1733144074678421, 5.352676868438721, 8.2191801071167,25
1628839789177,0.3479432463645935, 6.131227493286133, 8.170977592468262, 0.09733845293521881, 0.25486430525779724, 0.602672815322876, 0.18424110114574432, 5.366619110107422, 8.209845542907715,25
1628839789193,0.5299996137619019, 6.521690368652344, 8.365011215209961, 0.08135949820280075, 0.11851056665182114, 0.6655234098434448, 0.20977471768856049, 5.378388404846191, 8.201526641845703,25
1628839789210,1.146236538887024, 6.969645023345947, 8.715350151062012, 0.014247899875044823, -0.05086633190512657, 0.6665886640548706, 0.2773734927177429, 5.388556003570557, 8.192840576171875,25
1628839789226,1.5480780601501465, 7.331961154937744, 9.865777969360352, -0.14341109991073608, -0.3267695903778076, 0.602672815322876, 0.3580235540866852, 5.3811869621276855, 8.194557189941406,25
1628839789242,1.9780664443969727, 8.080548286437988, 11.06830883026123, -0.2701774537563324, -0.42370855808258057, 0.5504749417304993, 0.45678800344467163, 5.354635715484619, 8.207029342651367,25
1628839789259,2.585320234298706, 7.994909763336182, 12.498409271240234, -0.4022701382637024, -0.5227780938148499, 0.3523359000682831, 0.5574124455451965, 5.311807155609131, 8.228614807128906,25
1628839789275,2.8955347537994385, 7.575101852416992, 14.19321060180664, -0.36605116724967957, -0.40133804082870483, 0.15526215732097626, 0.6745890378952026, 5.240368366241455, 8.265565872192383,25
1628839789291,3.053636312484741, 6.755249500274658, 14.321368217468262, -0.24461114406585693, -0.0774979218840599, -0.03968106582760811, 0.7088028788566589, 5.199007511138916, 8.288789749145508,25
1628839789308,2.9194893836975098, 5.725792407989502, 13.927910804748535, -0.13382373750209808, 0.21758008003234863, -0.2239716500043869, 0.6931618452072144, 5.170917510986328, 8.307662010192871,25
1628839789324,2.3559532165527344, 4.510087013244629, 13.213459968566895, 0.04727106913924217, 0.4210454225540161, -0.3549990653991699, 0.6368250846862793, 5.158092498779297, 8.320135116577148,25
1628839789340,1.3756035566329956, 3.442901611328125, 12.072013854980469, 0.40306907892227173, 0.5627254843711853, -0.4082622528076172, 0.5486556887626648, 5.1760663986206055, 8.315252304077148,25
1628839789357,0.05150279030203819, 2.508664846420288, 10.078975677490234, 0.9910945296287537, 0.7566034197807312, -0.3028011620044708, 0.3999071717262268, 5.28189754486084, 8.256980895996094,25
1628839789373,-0.6126436591148376, 2.293670654296875, 7.579294204711914, 1.459810495376587, 0.9313066601753235, -0.07270423322916031, 0.2748554050922394, 5.431839466094971, 8.16429328918457,25
1628839789389,-1.042631983757019, 2.9470374584198, 4.388516902923584, 1.6451663970947266, 1.009070873260498, 0.2426137626171112, 0.1514662802219391, 5.623107433319092, 8.037028312683105,25
1628839789406,-1.0905416011810303, 3.938166618347168, 2.4661452770233154, 1.4065473079681396, 0.7864307761192322, 0.45353594422340393, 0.05758308991789818, 5.818511486053467, 7.897956371307373,25
1628839789422,-0.9947224855422974, 5.297001838684082, 1.6235356330871582, 0.834500789642334, 0.3454116880893707, 0.5259738564491272, 0.01724987104535103, 5.979055404663086, 7.777320384979248,25
1628839789438,-0.7036718130111694, 5.916233062744141, 2.0637047290802, 0.2858901023864746, -0.09028108417987823, 0.45673173666000366, 0.04452304169535637, 6.098580837249756, 7.683842658996582,25
1628839789454,0.15211288630962372, 5.730583667755127, 3.9621214866638184, -0.24780692160129547, -0.555801272392273, 0.25433167815208435, 0.11678878217935562, 6.113302707672119, 7.671375274658203,25
1628839789471,1.0599992275238037, 5.129917144775391, 5.9982781410217285, -0.5247754454612732, -0.6815023422241211, 0.0636494979262352, 0.20853598415851593, 6.0745463371276855, 7.7001633644104,25
1628839789487,1.380394458770752, 4.505296230316162, 7.664333820343018, -0.625975489616394, -0.6388918161392212, -0.13235899806022644, 0.2912428081035614, 6.005433559417725, 7.751519680023193,25
1628839789503,1.6049705743789673, 3.900437831878662, 9.383089065551758, -0.5375586152076721, -0.5089296698570251, -0.3134537935256958, 0.36436691880226135, 5.903706073760986, 7.826212406158447,25
1628839789519,0.959987998008728, 3.438110589981079, 9.860987663269043, -0.29893958568573, -0.1435442566871643, -0.4167843461036682, 0.37143972516059875, 5.84807825088501, 7.8675360679626465,25
1628839789536,-0.034135568886995316, 3.1326870918273926, 8.502751350402832, -0.10399635136127472, 0.3006706237792969, -0.36245590448379517, 0.3220120370388031, 5.81951904296875, 7.8908562660217285,25
1628839789552,-0.5216154456138611, 3.4950032234191895, 7.271475315093994, -0.12956267595291138, 0.6841654777526855, -0.2101232260465622, 0.23260575532913208, 5.80124044418335, 7.907441139221191,25
1628839789568,-0.7515813708305359, 3.8429465293884277, 6.282142639160156, -0.2648511528968811, 0.8759129047393799, -0.07483476400375366, 0.12113764882087708, 5.77495002746582, 7.929148197174072,25
1628839789585,-0.7324175834655762, 4.229217529296875, 5.775498867034912, -0.44168490171432495, 0.8354329466819763, 0.04340948909521103, -0.02675422839820385, 5.71640682220459, 7.9723334312438965,25
1628839789601,-0.6365984082221985, 4.577160835266113, 6.210876941680908, -0.5024049282073975, 0.6277065277099609, 0.12117372453212738, -0.109920933842659, 5.65731954574585, 8.013660430908203,25
1628839789617,-0.34015795588493347, 4.796347141265869, 6.6797919273376465, -0.36711645126342773, 0.37204328179359436, 0.17763268947601318, -0.15977664291858673, 5.6025519371032715, 8.0512113571167,25
1628839789633,-0.28266647458076477, 5.144289970397949, 6.897780418395996, -0.16471637785434723, 0.1110537201166153, 0.21598218381404877, -0.17656809091567993, 5.568933486938477, 8.074151039123535,25
1628839789650,0.013175131753087044, 5.654527187347412, 7.167271614074707, 0.020639481022953987, -0.0870852917432785, 0.2564621865749359, -0.15937814116477966, 5.561025142669678, 8.079957008361816,25
1628839789666,0.39585283398628235, 6.15458345413208, 7.16248083114624, 0.11012161523103714, -0.15206636488437653, 0.24474430084228516, -0.10818255692720413, 5.578890800476074, 8.068480491638184,25
1628839789682,0.6731294989585876, 6.50252628326416, 7.266684055328369, 0.0366184338927269, -0.1435442566871643, 0.16484953463077545, -0.0694260373711586, 5.592665672302246, 8.059366226196289,25
1628839789699,0.7635588049888611, 6.68398380279541, 7.546356201171875, -0.14021530747413635, -0.05938844010233879, 0.005060001742094755, -0.045889534056186676, 5.591284275054932, 8.060492515563965,25
1628839789715,0.5150278806686401, 6.583972930908203, 8.019463539123535, -0.2605900764465332, -0.03595264256000519, -0.14088110625743866, -0.04291330277919769, 5.570470809936523, 8.074907302856445,26
1628839789731,0.16169479489326477, 6.116854667663574, 8.611146926879883, -0.24993745982646942, -0.09134634584188461, -0.24527692794799805, -0.050318799912929535, 5.539277076721191, 8.096294403076172,26
1628839789747,-0.23056480288505554, 5.7832841873168945, 9.008795738220215, -0.10080055892467499, -0.2426137626171112, -0.255929559469223, -0.053250301629304886, 5.508910179138184, 8.116969108581543,26
1628839789764,-0.3018302917480469, 5.7832841873168945, 9.179473876953125, 0.03342264145612717, -0.34914010763168335, -0.16964322328567505, -0.03346303105354309, 5.505448341369629, 8.11942195892334,26
1628839789780,-0.25451958179473877, 6.240820407867432, 9.326196670532227, 0.09201213717460632, -0.3363569676876068, -0.037550538778305054, 0.0011542404536157846, 5.51393985748291, 8.113727569580078,26
1628839789796,-0.655762255191803, 7.413407325744629, 9.335779190063477, 0.016378426924347878, -0.120108462870121, 0.08602003008127213, 0.03317417949438095, 5.523309230804443, 8.107284545898438,26
1628839789813,-0.4982595443725586, 8.43807315826416, 8.592581748962402, -0.2563290297985077, 0.15686005353927612, 0.16378426551818848, 0.04077351465821266, 5.518031597137451, 8.110843658447266,26
1628839789829,0.40064379572868347, 8.943519592285156, 8.658456802368164, -0.79854816198349, 0.31664958596229553, 0.07004107534885406, 0.014674465171992779, 5.441803932189941, 8.162271499633789,26
1628839789845,1.0019088983535767, 8.742897987365723, 9.46812915802002, -1.2864388227462769, 0.26871272921562195, -0.12170635908842087, -0.023948734626173973, 5.312397003173828, 8.247057914733887,26
1628839789861,1.3797956705093384, 7.432570934295654, 11.201257705688477, -1.7040221691131592, -0.16591478884220123, -0.44235068559646606, -0.05449254438281059, 5.1230950355529785, 8.365825653076172,26
1628839789878,1.3845865726470947, 5.630572319030762, 13.393120765686035, -1.6390410661697388, -0.8327697515487671, -0.5904223322868347, -0.03497351333498955, 4.900503635406494, 8.4982328414917,26
1628839789894,2.1685068607330322, 3.6429240703582764, 15.93053150177002, -0.8060050010681152, -1.420795202255249, -0.6159886121749878, 0.06884994357824326, 4.7109551429748535, 8.604549407958984,26
1628839789910,2.282891035079956, 2.684732675552368, 15.916757583618164, 0.23582270741462708, -1.3281172513961792, -0.4924180507659912, 0.26986056566238403, 4.633460998535156, 8.642587661743164,26
1628839789927,1.9103941917419434, 2.5320208072662354, 13.407493591308594, 1.0752503871917725, -0.6655234098434448, -0.2378200888633728, 0.37831297516822815, 4.723502159118652, 8.589616775512695,26
1628839789943,1.0594004392623901, 3.2422802448272705, 8.990230560302734, 1.3096083402633667, 0.18242637813091278, 0.015712637454271317, 0.40079623460769653, 4.880008697509766, 8.500646591186523,26
1628839789959,0.07485870271921158, 3.8573193550109863, 6.409701824188232, 1.010269284248352, 0.47643911838531494, 0.05193159729242325, 0.361864298582077, 5.032116889953613, 8.413261413574219,26
1628839789975,-0.780925989151001, 4.262753963470459, 5.874911308288574, 0.5564670562744141, 0.3518032729625702, 0.12436951696872711, 0.3064531683921814, 5.140305519104004, 8.349817276000977,26
1628839789992,-1.0534117221832275, 4.314855575561523, 6.665419101715088, 0.4041343629360199, 0.17923058569431305, 0.2383527159690857, 0.2681424915790558, 5.222753524780273, 8.299822807312012,26
1628839790008,-0.5611408352851868, 4.329228401184082, 6.859452724456787, 0.4808333218097687, -0.08921582251787186, 0.4087948799133301, 0.28512516617774963, 5.276618480682373, 8.265113830566406,26
1628839790024,0.5288019180297852, 4.891567230224609, 7.039712429046631, 0.7077344655990601, -0.572845458984375, 0.5707149505615234, 0.36486685276031494, 5.3479084968566895, 8.216012001037598,26
1628839790041,1.3510499000549316, 5.682673931121826, 7.266684055328369, 0.9165260791778564, -0.9073382019996643, 0.5259738564491272, 0.5041601061820984, 5.445644378662109, 8.144131660461426,26
1628839790057,2.0822696685791016, 6.216865539550781, 7.351723670959473, 0.9570060968399048, -1.0426266193389893, 0.22770008444786072, 0.7178524732589722, 5.601188659667969, 8.021688461303711,26
1628839790073,2.3403825759887695, 5.897668361663818, 7.394842147827148, 0.8270439505577087, -0.9084034562110901, -0.07590002566576004, 0.8475328683853149, 5.71100378036499, 7.931092739105225,26
1628839790089,2.139761209487915, 5.420968055725098, 7.4942545890808105, 0.6065344214439392, -0.5888243913650513, -0.34434643387794495, 0.9212364554405212, 5.7991204261779785, 7.858602523803711,26
1628839790106,1.3175132274627686, 5.03469705581665, 7.3092041015625, 0.33169642090797424, -0.029561063274741173, -0.5552685856819153, 0.9224860072135925, 5.86073112487793, 7.812615394592285,26
1628839790122,0.6719317436218262, 4.862821578979492, 6.968447208404541, 0.11970898509025574, 0.4167843461036682, -0.6564686298370361, 0.8505520820617676, 5.895876407623291, 7.794312953948975,26
1628839790138,0.03174009174108505, 4.467567443847656, 6.376763820648193, 0.013182636350393295, 0.7384939193725586, -0.7086665630340576, 0.670760452747345, 5.91365909576416, 7.798387050628662,26
1628839790154,-0.16409027576446533, 4.253171920776367, 5.950368881225586, -0.023036323487758636, 0.7384939193725586, -0.7001444697380066, 0.5134168267250061, 5.917910575866699, 7.807102680206299,26
1628839790171,-0.6569600105285645, 4.405284881591797, 5.685668468475342, -0.035819485783576965, 0.6319676041603088, -0.6436854600906372, 0.36411842703819275, 5.918811321258545, 7.8148064613342285,26
1628839790187,-0.6330052018165588, 4.367556095123291, 5.6191935539245605, -0.03795001283288002, 0.41998013854026794, -0.5968139171600342, 0.2373858541250229, 5.917951583862305, 7.820333003997803,26
1628839790203,-0.8671632409095764, 4.543623924255371, 5.974323272705078, -0.03688475117087364, 0.22184112668037415, -0.5499423146247864, 0.14020483195781708, 5.91574764251709, 7.82434606552124,26
1628839790219,-0.8144627213478088, 4.534041881561279, 6.43844747543335, -0.02623211406171322, 0.1110537201166153, -0.4508727788925171, 0.0692792758345604, 5.912140846252441, 7.828020095825195,26
1628839790236,-0.9150727987289429, 4.615488052368164, 6.859452724456787, -0.014514215290546417, 0.1249021515250206, -0.30599695444107056, 0.01634121499955654, 5.908705234527588, 7.830903053283691,26
1628839790252,-1.0246659517288208, 4.98678731918335, 6.897181510925293, -0.017710005864501, 0.20160111784934998, -0.14727267622947693, -0.04371583089232445, 5.904374122619629, 7.834064960479736,26
1628839790270,-0.8767451643943787, 5.54972505569458, 7.091814041137695, -0.06564686447381973, 0.28362640738487244, 0.021038955077528954, -0.08184231072664261, 5.899930953979492, 7.837105751037598,26
1628839790286,-0.5563498735427856, 6.035408020019531, 7.801474571228027, -0.10186582803726196, 0.38163065910339355, 0.16804532706737518, -0.12691615521907806, 5.88691520690918, 7.846288204193115,27
1628839790302,-0.3940562307834625, 6.5264811515808105, 8.21828842163086, -0.056059494614601135, 0.47217807173728943, 0.22983060777187347, -0.16104167699813843, 5.878765106201172, 7.85176944732666,27
1628839790319,-0.19343489408493042, 6.979226589202881, 8.256016731262207, 0.013182636350393295, 0.5190496444702148, 0.25539693236351013, -0.2001718282699585, 5.879281044006348, 7.850484371185303,27
1628839790335,-0.10719766467809677, 7.222367763519287, 8.611146926879883, 0.06751107424497604, 0.5350285768508911, 0.2767021954059601, -0.2388976514339447, 5.886803150177002, 7.8437604904174805,27
1628839790351,-0.3653104901313782, 7.684695243835449, 8.620728492736816, 0.1026647686958313, 0.6000096797943115, 0.33103063702583313, -0.2786005437374115, 5.900548458099365, 7.8321146965026855,27
1628839790367,-0.4467567503452301, 8.299734115600586, 8.28955364227295, -0.011318424716591835, 0.6287717819213867, 0.4226433038711548, -0.3325794041156769, 5.917778491973877, 7.816995143890381,27
1628839790384,-0.21738967299461365, 9.248343467712402, 8.682412147521973, -0.2786995768547058, 0.585096001625061, 0.4982770085334778, -0.36192014813423157, 5.907408237457275, 7.8235321044921875,27
1628839790400,0.20840662717819214, 9.672343254089355, 9.35434341430664, -0.5514070391654968, 0.5105275511741638, 0.4844285845756531, -0.3741794228553772, 5.877431392669678, 7.8455023765563965,27
1628839790416,1.1450387239456177, 10.282591819763184, 13.199087142944336, -1.0137313604354858, 0.38163065910339355, 0.20106849074363708, -0.3907703161239624, 5.750161647796631, 7.9384541511535645,27
1628839790433,1.5989819765090942, 9.834636688232422, 14.964554786682129, -0.9455545544624329, 0.4934833347797394, -0.1440768986940384, -0.43215662240982056, 5.628281116485596, 8.023204803466797,27
1628839790449,1.7852303981781006, 7.775723457336426, 15.447842597961426, -0.5535375475883484, 0.46791699528694153, -0.6351633667945862, -0.5491718053817749, 5.494699478149414, 8.108193397521973,27
1628839790466,1.6181457042694092, 5.149081230163574, 14.514802932739258, -0.03262369707226753, 0.31025800108909607, -0.9611340165138245, -0.6602151393890381, 5.447686195373535, 8.131601333618164,27
1628839790482,-0.29404500126838684, 2.803907632827759, 13.042781829833984, 0.7620629072189331, 0.26977798342704773, -1.0357024669647217, -0.7735169529914856, 5.468672275543213, 8.107490539550781,27
1628839790498,-1.8804506063461304, 1.707377314567566, 9.998727798461914, 1.4374399185180664, 0.5041359663009644, -0.6500770449638367, -0.8938043713569641, 5.573296546936035, 8.02344036102295,27
1628839790515,-2.3302018642425537, 1.826552391052246, 7.200209617614746, 1.8102822303771973, 0.6809697151184082, -0.23142850399017334, -1.0102722644805908, 5.751674652099609, 7.882493019104004,27
1628839790531,-2.502077341079712, 3.82857346534729, 3.057828426361084, 1.7932380437850952, 0.7928223609924316, 0.3555316925048828, -1.1362411975860596, 6.04470157623291, 7.6424241065979,27
1628839790547,-2.028970241546631, 5.654527187347412, 1.4953774213790894, 1.224387288093567, 0.5755085945129395, 0.639957070350647, -1.1800258159637451, 6.24353551864624, 7.474083423614502,27
1628839790564,-1.5462814569473267, 6.645656585693359, 1.2300782203674316, 0.5681849122047424, 0.2516685128211975, 0.5504749417304993, -1.1796045303344727, 6.380100727081299, 7.3579182624816895,27
1628839790580,-0.9821462035179138, 6.722311496734619, 1.9265636205673218, -0.02516685053706169, -0.2767021954059601, 0.2937464118003845, -1.1443310976028442, 6.440971374511719, 7.310300827026367,27
1628839790596,-0.1886439323425293, 5.54972505569458, 4.530448913574219, -0.5194491147994995, -0.8412918448448181, -0.05246422812342644, -1.0421092510223389, 6.416240215301514, 7.347243309020996,27
1628839790613,0.4228019714355469, 4.22442626953125, 6.973237991333008, -0.7175881266593933, -1.1203908920288086, -0.23249375820159912, -0.9383460283279419, 6.33942985534668, 7.427465915679932,27
1628839790629,0.47550249099731445, 3.6429240703582764, 10.206535339355469, -0.5961480736732483, -1.1395657062530518, -0.2942790389060974, -0.8272585272789001, 6.247285842895508, 7.518188953399658,27
1628839790645,0.4659205675125122, 3.4854211807250977, 11.503686904907227, -0.30107009410858154, -0.9137297868728638, -0.3134537935256958, -0.7611846923828125, 6.199169635772705, 7.564853191375732,27
1628839790662,-0.08863270282745361, 3.3141446113586426, 10.315529823303223, 0.2826943099498749, -0.27244114875793457, -0.3283674716949463, -0.7057428956031799, 6.179058074951172, 7.586650848388672,27
1628839790678,-0.7048695683479309, 3.580641508102417, 8.052401542663574, 0.42011329531669617, 0.10572740435600281, -0.277234822511673, -0.729127049446106, 6.211431980133057, 7.557948589324951,27
1628839790694,-1.130665898323059, 3.762099027633667, 6.07373571395874, 0.2059953361749649, 0.4540685713291168, -0.17496953904628754, -0.7872486710548401, 6.240927219390869, 7.5277605056762695,27
1628839790711,-1.51753568649292, 4.038776874542236, 5.292211055755615, -0.0954742431640625, 0.5755085945129395, -0.05139896646142006, -0.8630031943321228, 6.245152950286865, 7.51594352722168,27
1628839790727,-1.661264419555664, 4.453194618225098, 5.254482269287109, -0.3298322260379791, 0.5360938906669617, 0.0774979218840599, -0.9342944622039795, 6.221079349517822, 7.527375221252441,27
1628839790743,-1.584609031677246, 4.75801944732666, 5.870120048522949, -0.39481329917907715, 0.39547908306121826, 0.14674004912376404, -0.9991912841796875, 6.165111541748047, 7.564993858337402,27
1628839790760,-1.1875585317611694, 4.753228187561035, 6.566006660461426, -0.25313323736190796, 0.22716744244098663, 0.22663481533527374, -1.0186054706573486, 6.129307746887207, 7.591452121734619,27
1628839790776,-0.8150615692138672, 5.087397575378418, 6.386345863342285, 0.01531316339969635, -0.00719052879139781, 0.30759483575820923, -1.0080130100250244, 6.118797302246094, 7.601337909698486,27
1628839790793,-0.4234008193016052, 5.649735927581787, 6.083317756652832, 0.1591237336397171, -0.30759483575820923, 0.32144325971603394, -0.9627081155776978, 6.134217262268066, 7.594780921936035,27
1628839790809,-0.011977393180131912, 6.268967151641846, 6.357600212097168, 0.19001637399196625, -0.555801272392273, 0.2564621865749359, -0.8520752787590027, 6.171928882598877, 7.577425003051758,27
1628839790825,0.23176254332065582, 6.61271858215332, 6.878616809844971, 0.11970898509025574, -0.5344959497451782, 0.10839056223630905, -0.7918153405189514, 6.1889166831970215, 7.570102214813232,27
1628839790842,0.4515477120876312, 6.68398380279541, 7.3613057136535645, 0.02703106217086315, -0.40666434168815613, -0.06950844824314117, -0.7001467943191528, 6.208356857299805, 7.563214302062988,27
1628839790858,0.18984167277812958, 6.731893539428711, 7.849384307861328, -0.04966791346669197, -0.17550216615200043, -0.2143842875957489, -0.6724321842193604, 6.207569122314453, 7.566374778747559,28
1628839790874,-0.020960437133908272, 6.783995151519775, 7.8350114822387695, -0.11677951365709305, -0.008255792781710625, -0.2996053695678711, -0.6898492574691772, 6.192295074462891, 7.577314853668213,28
1628839790891,-0.36950257420539856, 6.951079845428467, 8.190140724182129, -0.13701951503753662, -0.07856318354606628, -0.33049800992012024, -0.7131802439689636, 6.174217224121094, 7.589896202087402,28
1628839790907,-0.44615787267684937, 7.1798481941223145, 8.606355667114258, -0.11571425199508667, -0.20639480650424957, -0.32943275570869446, -0.7265729904174805, 6.1567230224609375, 7.602826118469238,28
1628839790923,-0.8809372186660767, 7.618220806121826, 9.472919464111328, -0.15086795389652252, -0.29800745844841003, -0.2846916913986206, -0.7253807783126831, 6.138479709625244, 7.617676734924316,28
1628839790940,-0.5084403157234192, 8.723733901977539, 9.420818328857422, -0.33302801847457886, -0.05619265139102936, -0.2090579718351364, -0.7258432507514954, 6.1025390625, 7.646455764770508,28
1628839790956,0.11318635940551758, 8.766852378845215, 9.852004051208496, -0.7111965417861938, -0.08069371432065964, -0.40613171458244324, -0.7440500259399414, 6.037766933441162, 7.695964813232422,28
1628839790973,-0.3599206507205963, 8.447654724121094, 11.996556282043457, -0.9487503170967102, 0.07483476400375366, -0.6788392066955566, -0.7857231497764587, 5.929711818695068, 7.775427341461182,28
1628839790989,-0.7857169508934021, 7.746977806091309, 12.076805114746094, -0.9881650805473328, 0.4210454225540161, -0.7917571067810059, -0.8757960200309753, 5.803928852081299, 7.86024808883667,28
1628839791005,-0.6371973156929016, 6.4216790199279785, 11.631844520568848, -1.0446240901947021, 0.539289653301239, -0.9100013375282288, -1.0073424577713013, 5.667043209075928, 7.943928241729736,28
1628839791022,-0.6180334687232971, 4.110042095184326, 11.669573783874512, -0.8858997821807861, 0.29640957713127136, -1.0676603317260742, -1.1874020099639893, 5.475438117980957, 8.05268669128418,28
1628839791038,-1.3923718929290771, 2.3799078464508057, 11.840251922607422, -0.40440067648887634, -0.024234745651483536, -1.051681399345398, -1.2876474857330322, 5.3662214279174805, 8.110593795776367,28
1628839791054,-2.2194108963012695, 0.9689710736274719, 10.921585083007812, 0.44035330414772034, -0.13821794092655182, -0.606401264667511, -1.3454606533050537, 5.334133148193359, 8.122368812561035,28
1628839791070,-2.2960662841796875, 1.1642025709152222, 8.615937232971191, 1.064597725868225, -0.013582110404968262, 0.016777900978922844, -1.3669124841690063, 5.399744987487793, 8.075296401977539,28
1628839791087,-2.1044278144836426, 3.1278960704803467, 5.268855094909668, 1.2797809839248657, 0.032224223017692566, 0.5930854678153992, -1.3437803983688354, 5.593389987945557, 7.9463419914245605,28
1628839791103,-1.8846427202224731, 4.867612361907959, 3.46026873588562, 0.9921598434448242, -0.11371687799692154, 0.828508734703064, -1.307012915611267, 5.701225757598877, 7.875522136688232,28
1628839791119,-1.105513334274292, 6.326458930969238, 3.436912775039673, 0.3668501377105713, -0.4396875202655792, 0.8583360910415649, -1.176590919494629, 5.862322807312012, 7.777204513549805,28
1628839791136,-0.04970617964863777, 6.698357105255127, 4.932888984680176, -0.11038793623447418, -0.6463486552238464, 0.7368960380554199, -1.039559245109558, 5.906360626220703, 7.763397216796875,28
1628839791152,1.4564509391784668, 6.864842414855957, 7.0870232582092285, -0.3735080361366272, -0.7805718183517456, 0.4546011984348297, -0.8439371585845947, 5.8852128982543945, 7.803086280822754,28
1628839791168,2.2307894229888916, 6.640865325927734, 8.904592514038086, -0.3362238109111786, -0.8189213275909424, 0.08069371432065964, -0.7153980731964111, 5.846036434173584, 7.845264434814453,28
1628839791185,2.0439419746398926, 5.930605888366699, 10.509563446044922, 0.0025300008710473776, -0.6665886640548706, -0.43808963894844055, -0.6283956170082092, 5.819406032562256, 7.872467517852783,28
1628839791201,0.9162705540657043, 4.93947696685791, 9.795111656188965, 0.3327617049217224, -0.30226853489875793, -0.7512770891189575, -0.6094064712524414, 5.827233791351318, 7.86816930770874,28
1628839791217,-0.4749036133289337, 4.019612789154053, 7.934423923492432, 0.43076592683792114, 0.04820317402482033, -0.8599339723587036, -0.683212399482727, 5.873510837554932, 7.827592372894287,28
1628839791233,-1.3258973360061646, 3.647714853286743, 6.642063140869141, 0.28908589482307434, 0.28362640738487244, -0.749146580696106, -0.7812654972076416, 5.901988983154297, 7.796938896179199,28
1628839791250,-2.133173704147339, 3.900437831878662, 5.643148422241211, 0.05153212323784828, 0.4370243549346924, -0.5360938906669617, -0.8900442123413086, 5.910240650177002, 7.7790093421936035,28
1628839791266,-2.3296029567718506, 4.295691967010498, 5.112550258636475, -0.14447636902332306, 0.35819485783576965, -0.3549990653991699, -0.9898184537887573, 5.899140357971191, 7.775378704071045,28
1628839791282,-2.128382682800293, 4.7107086181640625, 5.283227920532227, -0.288286954164505, 0.1483379453420639, -0.23568955063819885, -1.0585486888885498, 5.8715362548828125, 7.787210464477539,28
1628839791299,-1.5121458768844604, 4.996369361877441, 6.177938938140869, -0.383095383644104, -0.07217160612344742, -0.16005584597587585, -1.0930832624435425, 5.815794944763184, 7.824180603027344,28
1628839791315,-1.1869596242904663, 5.134708404541016, 7.148108005523682, -0.43316277861595154, -0.13076110184192657, -0.13342425227165222, -1.094211459159851, 5.763974189758301, 7.862277984619141,28
1628839791331,-0.8905191421508789, 5.163454055786133, 8.46921443939209, -0.33302801847457886, -0.07110633701086044, -0.10359688103199005, -1.0892857313156128, 5.712385177612305, 7.9005208015441895,28
1628839791347,-0.5940786600112915, 5.329939842224121, 8.506942749023438, -0.11571425199508667, 0.07057370990514755, -0.07057370990514755, -1.0941529273986816, 5.677830696105957, 7.924719333648682,28
1628839791363,-0.5515589118003845, 5.6018266677856445, 8.0859375, -0.047537386417388916, 0.16538216173648834, -0.06311686336994171, -1.1165887117385864, 5.661788463592529, 7.93306303024292,28
1628839791380,-0.6755249500274658, 5.730583667755127, 7.773327827453613, -0.11677951365709305, 0.2623211443424225, -0.05566002056002617, -1.146767258644104, 5.651787281036377, 7.935888767242432,28
1628839791396,-0.9192649126052856, 5.625781536102295, 7.94879674911499, -0.22437113523483276, 0.3454116880893707, -0.01837579533457756, -1.1861321926116943, 5.630182266235352, 7.945454120635986,29
1628839791412,-1.139050006866455, 5.5634989738464355, 8.166186332702637, -0.22011007368564606, 0.35712960362434387, 0.05512738600373268, -1.2275243997573853, 5.601900100708008, 7.959146022796631,29
1628839791429,-1.2827787399291992, 5.4970245361328125, 8.270389556884766, -0.14128057658672333, 0.34328117966651917, 0.17017585039138794, -1.2616713047027588, 5.579946517944336, 7.9692206382751465,29
1628839791445,-1.1965415477752686, 5.511397361755371, 8.294344902038574, -0.018775269389152527, 0.26871272921562195, 0.3097253739833832, -1.2844007015228271, 5.5723419189453125, 7.970911979675293,29
1628839791462,-1.0294568538665771, 5.70183801651001, 8.459632873535156, 0.1356879472732544, 0.15686005353927612, 0.4364917278289795, -1.2820690870285034, 5.579369068145752, 7.966370105743408,29
1628839791478,-0.9575925469398499, 6.31208610534668, 8.563836097717285, 0.2528669238090515, 0.09400950372219086, 0.5163865089416504, -1.2509711980819702, 5.6175384521484375, 7.944460391998291,29
1628839791494,-1.034247875213623, 7.022345542907715, 8.30811882019043, 0.313586950302124, 0.04394211992621422, 0.5568665266036987, -1.2050820589065552, 5.671712875366211, 7.912999153137207,29
1628839791510,-0.5797058343887329, 7.3511247634887695, 8.100310325622559, 0.2965427339076996, -0.07962844520807266, 0.5440833568572998, -1.1626615524291992, 5.714691162109375, 7.888385772705078,29
1628839791527,-0.4892764985561371, 7.265486240386963, 9.065688133239746, 0.16764584183692932, -0.2841590344905853, 0.44820961356163025, -1.0707025527954102, 5.767750263214111, 7.86274528503418,29
1628839791543,-0.6324063539505005, 7.837407112121582, 10.414941787719727, -0.05392896756529808, -0.21172112226486206, 0.43010014295578003, -0.9976534247398376, 5.7840776443481445, 7.860359191894531,29
1628839791559,-0.6803159117698669, 8.347643852233887, 12.058239936828613, -0.24035008251667023, -0.0029294746927917004, 0.3470095992088318, -0.943051278591156, 5.773130893707275, 7.8751325607299805,29
1628839791575,-0.5515589118003845, 8.562039375305176, 12.550511360168457, -0.36285537481307983, 0.3049316704273224, 0.17443689703941345, -0.9322261810302734, 5.7414164543151855, 7.899569988250732,29
1628839791592,-0.4940674602985382, 7.1367292404174805, 12.725380897521973, -0.4161185622215271, 0.22610218822956085, -0.10359688103199005, -0.9611464738845825, 5.6927170753479, 7.931283950805664,29
1628839791608,-1.0959314107894897, 5.005951404571533, 13.109256744384766, -0.1380847841501236, -0.17017585039138794, -0.2527337670326233, -0.9866635799407959, 5.631119251251221, 7.972019672393799,29
1628839791625,-1.177377700805664, 3.4854211807250977, 13.014036178588867, 0.48189857602119446, -0.5067991018295288, -0.19734007120132446, -0.9611189961433411, 5.635257720947266, 7.97221565246582,29
1628839791641,-1.5073548555374146, 2.9518284797668457, 11.721674919128418, 1.0816419124603271, -0.5036033391952515, -0.023702112957835197, -0.9095525741577148, 5.710404872894287, 7.924651622772217,29
1628839791657,-1.6409027576446533, 3.3758280277252197, 9.179473876953125, 1.4566147327423096, -0.2862895727157593, 0.1914811134338379, -0.85460364818573, 5.8514227867126465, 7.827299118041992,29
1628839791674,-1.8702698945999146, 4.625070095062256, 6.173148155212402, 1.3990905284881592, 0.09400950372219086, 0.31185588240623474, -0.8137535452842712, 6.079125881195068, 7.656249046325684,29
1628839791690,-1.9038065671920776, 5.501815319061279, 4.146573543548584, 0.9996166825294495, 0.32943275570869446, 0.32996538281440735, -0.8193888068199158, 6.22426176071167, 7.538120746612549,29
1628839791706,-2.013998508453369, 6.164165019989014, 3.1764044761657715, 0.27843326330184937, 0.24953797459602356, 0.23622219264507294, -0.8379455208778381, 6.312373161315918, 7.462432861328125,29
1628839791722,-1.4690271615982056, 5.864131450653076, 4.3316240310668945, -0.28722167015075684, -0.147805318236351, 0.06471475958824158, -0.8400911688804626, 6.327516078948975, 7.449355602264404,29
1628839791739,-0.3078189790248871, 4.324437618255615, 7.432570934295654, -0.5471459627151489, -0.5771065354347229, -0.1536642611026764, -0.808154821395874, 6.282979488372803, 7.490471363067627,29
1628839791755,0.07485870271921158, 3.156641960144043, 10.448478698730469, -0.5940175652503967, -0.7134602665901184, -0.24527692794799805, -0.7292305827140808, 6.180255889892578, 7.58345365524292,29
1628839791771,-0.05928809568285942, 1.9127895832061768, 12.507990837097168, -0.37670382857322693, -0.5174517631530762, -0.20692743360996246, -0.6768269538879395, 6.105732440948486, 7.648401737213135,29
1628839791788,-0.32638394832611084, 1.5882022380828857, 12.607403755187988, 0.10905635356903076, -0.06471475958824158, 0.1062600389122963, -0.6468049883842468, 6.072405815124512, 7.677476406097412,29
1628839791804,-0.14971740543842316, 2.4895009994506836, 11.129992485046387, 0.3657848536968231, 0.49135279655456543, 0.32037800550460815, -0.6441418528556824, 6.085842132568359, 7.667054176330566,29
1628839791820,-0.13534453511238098, 3.647714853286743, 8.142830848693848, 0.35406696796417236, 0.9440897703170776, 0.3512706458568573, -0.7144426703453064, 6.135284900665283, 7.621283531188965,29
1628839791837,-0.46053075790405273, 4.314855575561523, 6.424074649810791, 0.18042901158332825, 1.0197235345840454, 0.25433167815208435, -0.8007177710533142, 6.163320064544678, 7.590023040771484,29
1628839791853,-1.011490821838379, 4.867612361907959, 5.386832237243652, -0.00918789766728878, 0.8897613883018494, 0.14460952579975128, -0.8947663903236389, 6.173165798187256, 7.5714945793151855,29
1628839791869,-1.3552420139312744, 5.044279098510742, 4.871205806732178, -0.11251845955848694, 0.37204328179359436, 0.03382211551070213, -0.9670201539993286, 6.168859958648682, 7.566117286682129,29
1628839791885,-0.9204626083374023, 4.696335792541504, 5.1317138671875, -0.13169319927692413, -0.1627189964056015, -0.03968106582760811, -0.9871012568473816, 6.1571044921875, 7.5730977058410645,29
1628839791902,-0.667140781879425, 4.610697269439697, 6.788187503814697, -0.13062794506549835, -0.791224479675293, -0.06631265580654144, -0.9466466903686523, 6.1413893699646, 7.591002464294434,29
1628839791918,-0.3371635973453522, 4.496313095092773, 8.668039321899414, -0.05499422922730446, -0.9105340242385864, -0.04287685826420784, -0.8186619877815247, 6.1184539794921875, 7.624330997467041,29
1628839791934,-0.10779653489589691, 4.881985187530518, 9.302242279052734, -0.0390152782201767, -0.6527402400970459, -0.05672528222203255, -0.728825032711029, 6.1080732345581055, 7.641752243041992,29
1628839791951,-0.10300558060407639, 4.996369361877441, 9.64778995513916, -0.08162581920623779, -0.3661843240261078, -0.11744530498981476, -0.6709402799606323, 6.094252586364746, 7.6580705642700195,29
1628839791967,-0.08863270282745361, 5.196990489959717, 9.29745101928711, -0.12956267595291138, -0.09347687661647797, -0.19734007120132446, -0.6545265316963196, 6.075498104095459, 7.674375534057617,29
1628839791983,-0.14133323729038239, 5.2161545753479, 9.01358699798584, -0.20945744216442108, 0.08548739552497864, -0.2942790389060974, -0.6813298463821411, 6.038858890533447, 7.70091438293457,29
1628839791999,-0.30422577261924744, 5.3922224044799805, 8.587790489196777, -0.19773954153060913, 0.1813611090183258, -0.37310853600502014, -0.7291507720947266, 6.006951332092285, 7.721462249755859,30
1628839792016,-0.5575476288795471, 5.849758625030518, 7.882322311401367, -0.16471637785434723, 0.14940321445465088, -0.5254412293434143, -0.7884584665298462, 5.979991912841797, 7.736545562744141,30
