timestamp,acc_x,acc_y,acc_z,gyro_x,gyro_y,gyro_z,gravity_x,gravity_y,gravity_z,pedo
1627739460357,-1.1863607168197632, 3.7201781272888184, 8.092525482177734, 0.2888195812702179, -0.6024065017700195, 0.10093371570110321, -0.5543773770332336, 3.246986150741577, 9.240446090698242,0
1627739460373,-0.6653441786766052, 3.981884241104126, 8.948908805847168, 0.17803215980529785, -0.6993455290794373, 0.012516846880316734, -0.459483802318573, 3.283870220184326, 9.232614517211914,0
1627739460390,-0.5940786600112915, 3.8579182624816895, 10.147247314453125, 0.12689951062202454, -0.4671180546283722, -0.08335687220096588, -0.3772619962692261, 3.303020715713501, 9.229509353637695,0
1627739460406,-0.9617846608161926, 3.772279739379883, 10.180185317993164, 0.21638165414333344, -0.1976063847541809, -0.1440768986940384, -0.3344551920890808, 3.325212001800537, 9.223188400268555,0
1627739460422,-0.8521915078163147, 3.596212148666382, 9.43698787689209, 0.23555639386177063, 0.06551370769739151, -0.16964322328567505, -0.3329854905605316, 3.358588218688965, 9.211140632629395,0
1627739460439,-0.7851181030273438, 3.453082323074341, 9.218998908996582, 0.13116057217121124, 0.15180005133152008, -0.17070847749710083, -0.3714470863342285, 3.3914828300476074, 9.197607040405273,0
1627739460455,-0.9330388903617859, 3.4291274547576904, 9.129168510437012, 0.16418373584747314, 0.14327794313430786, -0.1675126850605011, -0.40363267064094543, 3.41023850440979, 9.189312934875488,0
1627739460471,-1.1480331420898438, 3.4578733444213867, 8.64168930053711, 0.2323606014251709, 0.0026631588116288185, -0.11744530498981476, -0.42378339171409607, 3.4384448528289795, 9.177886962890625,0
1627739460487,-0.6509712934494019, 3.7201781272888184, 7.864954948425293, 0.2227732390165329, -0.3637875020503998, -0.07376950234174728, -0.41022443771362305, 3.4732108116149902, 9.165404319763184,0
1627739460504,-0.5317962169647217, 3.948946475982666, 9.100422859191895, 0.17909742891788483, -0.4809664785861969, -0.1525990068912506, -0.35054877400398254, 3.502570867538452, 9.15670394897461,0
1627739460520,-0.2209828943014145, 3.905827760696411, 9.990942001342773, 0.1759016364812851, -0.16138742864131927, -0.25486430525779724, -0.3034106492996216, 3.5356054306030273, 9.145685195922852,0
1627739460536,-0.4024403989315033, 3.5003929138183594, 9.740015983581543, 0.19720691442489624, 0.14753900468349457, -0.28362640738487244, -0.322726845741272, 3.5590648651123047, 9.135918617248535,0
1627739460553,-1.1528240442276, 3.019500732421875, 8.759666442871094, 0.3271690607070923, 0.20612849295139313, -0.190948486328125, -0.3667503297328949, 3.591780662536621, 9.121441841125488,0
1627739460569,-1.0432308912277222, 3.3099524974823, 8.319497108459473, 0.4155859351158142, 0.15180005133152008, -0.05672528222203255, -0.405551940202713, 3.640425682067871, 9.100491523742676,0
1627739460585,-0.6701351404190063, 3.844144105911255, 8.503949165344238, 0.5849628448486328, -0.12197267264127731, 0.052996858954429626, -0.4125431478023529, 3.7079954147338867, 9.072854042053223,0
1627739460601,-0.09162705391645432, 4.077703475952148, 8.078152656555176, 0.583897590637207, -0.14008215069770813, -0.0013315794058144093, -0.38219982385635376, 3.823225975036621, 9.026237487792969,0
1627739460618,-0.13953661918640137, 3.953737258911133, 7.581090927124023, 0.4155859351158142, -0.16671374440193176, -0.09294424206018448, -0.36625221371650696, 3.8913769721984863, 8.99773120880127,0
1627739460634,-0.33117491006851196, 3.872291088104248, 8.08773422241211, 0.6030722856521606, -0.8452866077423096, -0.14088110625743866, -0.31595247983932495, 3.953803300857544, 8.972386360168457,0
1627739460650,0.1664857566356659, 4.735262393951416, 9.574129104614258, 1.3093420267105103, -1.8487648963928223, -0.1856221705675125, -0.14916488528251648, 4.073589324951172, 8.922988891601562,0
1627739460666,1.0216716527938843, 3.3955907821655273, 9.938840866088867, 1.9676748514175415, -1.849830150604248, -0.2900179922580719, 0.18336057662963867, 4.372933387756348, 8.779518127441406,0
1627739460683,1.0456264019012451, 2.618856906890869, 7.566717624664307, 2.112550735473633, -1.4471604824066162, -0.2612558901309967, 0.38034093379974365, 4.645111560821533, 8.632171630859375,0
1627739460699,1.3372758626937866, 5.755136966705322, 2.595500946044922, 1.516003131866455, -1.5132068395614624, -0.21225376427173615, 0.5517168045043945, 4.900091648101807, 8.48061466217041,0
1627739460715,0.7060673236846924, 4.9688215255737305, 2.803907632827759, 0.6286386251449585, -2.0074892044067383, -0.36671698093414307, 0.7555845379829407, 5.067446231842041, 8.365774154663086,0
1627739460732,1.1270726919174194, 3.691432476043701, 5.422165870666504, 0.024634219706058502, -2.123602867126465, -0.3795001208782196, 1.0779987573623657, 5.139400482177734, 8.286169052124023,1
1627739460748,0.8162593245506287, 3.7249691486358643, 10.16102123260498, -0.40679749846458435, -1.5132068395614624, -0.20586217939853668, 1.2844256162643433, 5.109889030456543, 8.274986267089844,1
1627739460764,1.633716344833374, 5.0688323974609375, 11.472545623779297, -0.3290332853794098, 0.026098955422639847, -0.03115895763039589, 1.348886489868164, 5.0534844398498535, 8.299332618713379,1
1627739460780,2.4984841346740723, 5.683871746063232, 9.17647933959961, 0.31119009852409363, -0.8293076753616333, -0.21758008003234863, 1.3764259815216064, 5.047857761383057, 8.298233985900879,1
1627739460797,2.8631956577301025, 5.431148529052734, 7.6475653648376465, 0.7159902453422546, -1.6974973678588867, -0.5819001793861389, 1.5614891052246094, 5.156791687011719, 8.197888374328613,1
1627739460813,3.541714906692505, 5.988696575164795, 5.152075290679932, 0.3495396077632904, -1.8391774892807007, -0.7928223609924316, 1.736678957939148, 5.247782230377197, 8.104372024536133,1
1627739460829,0.9222592115402222, 6.31747579574585, 6.227046489715576, -0.42064592242240906, -1.8231985569000244, -1.3883047103881836, 1.8805357217788696, 5.278181076049805, 8.052359580993652,1
1627739460846,-2.3900887966156006, 4.92091178894043, 8.612942695617676, -0.8627303242683411, -1.8306553363800049, -1.1081403493881226, 1.990540862083435, 5.247677326202393, 8.045851707458496,1
1627739460862,-1.4911854267120361, 3.701014280319214, 11.519856452941895, -0.9607345461845398, -1.4663352966308594, -0.06311686336994171, 2.131133556365967, 5.151401996612549, 8.072015762329102,2
1627739460878,1.6678519248962402, 4.344200134277344, 11.558183670043945, -1.0012145042419434, -0.8751139640808105, 0.5771065354347229, 2.3418729305267334, 4.96755838394165, 8.128660202026367,2
1627739460894,2.446981430053711, 5.411984920501709, 11.77557373046875, -0.9372987151145935, -0.4713791012763977, 0.6229128241539001, 2.4664041996002197, 4.817975044250488, 8.18169116973877,2
1627739460911,2.4182355403900146, 6.1461992263793945, 10.108919143676758, -0.7455512881278992, -0.1507347822189331, 0.49508121609687805, 2.5389091968536377, 4.689326286315918, 8.234091758728027,2
1627739460927,2.772167444229126, 6.398921966552734, 8.958491325378418, -0.6560691595077515, -0.13049478828907013, 0.21598218381404877, 2.5829737186431885, 4.588358402252197, 8.277156829833984,2
1627739460943,3.3027660846710205, 5.168843746185303, 7.410412788391113, -0.7072018384933472, -0.2913495600223541, -0.266582190990448, 2.605990409851074, 4.507312297821045, 8.3143892288208,2
1627739460959,2.36613392829895, 3.090766191482544, 6.994198322296143, -0.7476818561553955, -0.5512738823890686, -0.4455464780330658, 2.644765853881836, 4.405885219573975, 8.356404304504395,2
1627739460976,1.410338044166565, 0.4832877814769745, 6.3168768882751465, -0.5868270397186279, -0.776044487953186, 0.05832317844033241, 2.711367130279541, 4.320254802703857, 8.37973690032959,2
1627739460992,1.8211625814437866, -0.19343489408493042, 5.535951137542725, -0.30772799253463745, -1.2522172927856445, 0.837030827999115, 2.8570451736450195, 4.226193428039551, 8.379301071166992,2
1627739461008,2.6482014656066895, 1.1695923805236816, 4.981996536254883, 0.12583425641059875, -1.8338510990142822, 1.3377046585083008, 3.119403123855591, 4.1444244384765625, 8.326415061950684,3
1627739461025,3.2931840419769287, 1.7990044355392456, 2.316427707672119, 0.4720448851585388, -2.0756659507751465, 1.3675320148468018, 3.568652629852295, 4.092000484466553, 8.170455932617188,3
1627739461041,3.570460796356201, 1.2743946313858032, -1.5187333822250366, 0.7223818302154541, -2.6754093170166016, 1.2684625387191772, 3.9720518589019775, 4.101953983306885, 7.977022171020508,3
1627739461057,3.9291837215423584, 0.20241793990135193, -3.7483251094818115, 0.6797713041305542, -3.322024345397949, 1.252483606338501, 4.442414283752441, 4.118640899658203, 7.716078281402588,4
1627739461074,3.8812742233276367, 1.1935471296310425, -3.9848785400390625, 0.21425113081932068, -3.738542318344116, 1.0309088230133057, 4.955041408538818, 4.09781551361084, 7.4088850021362305,4
1627739461090,3.2931840419769287, -0.984541654586792, -3.2087435722351074, -0.884035587310791, -3.9547908306121826, 0.3885548710823059, 5.457052230834961, 4.022493362426758, 7.090573787689209,5
1627739461106,2.4236254692077637, -4.487928867340088, -1.433095097541809, -1.3165326118469238, -4.0943403244018555, 0.8466181755065918, 6.1002516746521, 3.7655582427978516, 6.696537017822266,6
1627739461123,1.8211625814437866, -5.4748663902282715, -1.385784387588501, -1.483778953552246, -4.387287616729736, 1.4005552530288696, 6.6114702224731445, 3.481114149093628, 6.356603622436523,6
1627739461139,1.9601002931594849, -7.734401226043701, -1.3288917541503906, -2.08884859085083, -4.493813991546631, 2.188850164413452, 7.138861656188965, 3.0971732139587402, 5.973297119140625,7
1627739461155,3.1644270420074463, -8.701576232910156, 0.4228019714355469, -2.69498348236084, -4.391549110412598, 2.80031156539917, 7.651989459991455, 2.5755412578582764, 5.572230815887451,7
1627739461171,4.813714027404785, -9.978964805603027, 2.0038177967071533, -3.0145626068115234, -4.316980361938477, 3.329747438430786, 8.264769554138184, 1.7163875102996826, 4.998370170593262,8
1627739461188,5.855747222900391, -10.684432983398438, 3.481229305267334, -2.917623519897461, -4.539620399475098, 3.6493265628814697, 8.663082122802734, 1.008679986000061, 4.491068363189697,8
1627739461204,8.27877426147461, -11.046749114990234, 5.327544212341309, -2.425471782684326, -4.9572038650512695, 3.876227617263794, 9.003493309020996, 0.2943519055843353, 3.884143590927124,9
1627739461220,10.683235168457031, -11.385110855102539, 7.794288158416748, -2.044107437133789, -5.021119594573975, 4.1265645027160645, 9.269597053527832, -0.40876102447509766, 3.184896945953369,9
1627739461237,12.685855865478516, -11.309054374694824, 9.659767150878906, -2.159156084060669, -3.9302897453308105, 4.208590030670166, 9.419084548950195, -1.1147065162658691, 2.504873514175415,9
1627739461253,12.939177513122559, -12.996668815612793, 10.86648941040039, -3.1445248126983643, -1.6005584001541138, 4.433360576629639, 9.398489952087402, -2.072544574737549, 1.8997520208358765,9
1627739461269,14.263278007507324, -13.620691299438477, 13.224239349365234, -4.089413642883301, 0.5384907126426697, 4.927642822265625, 9.222636222839355, -2.8617594242095947, 1.7289913892745972,9
1627739461286,21.136505126953125, -12.286409378051758, 17.078563690185547, -4.335489273071289, 1.8998974561691284, 4.93403434753418, 8.931544303894043, -3.676450490951538, 1.7167868614196777,8
1627739461302,24.989032745361328, -10.489201545715332, 20.26934242248535, -3.784748077392578, 2.3078935146331787, 4.350269794464111, 8.582867622375488, -4.415225982666016, 1.753928303718567,8
1627739461318,23.932626724243164, -8.472807884216309, 21.594640731811523, -3.5908701419830322, 3.5830137729644775, 3.335073709487915, 8.099407196044922, -5.195668697357178, 1.9080784320831299,8
1627739461335,20.084890365600586, -8.649474143981934, 20.709510803222656, -3.7027227878570557, 4.948681831359863, 2.577671527862549, 7.72752046585083, -5.645408630371094, 2.1565985679626465,7
1627739461351,16.241943359375, -8.444062232971191, 20.326234817504883, -3.5258891582489014, 5.843502998352051, 2.268744945526123, 7.321397304534912, -6.0378265380859375, 2.485538959503174,7
1627739461367,13.67039680480957, -7.552943706512451, 17.329490661621094, -3.1136322021484375, 6.272804260253906, 2.149435520172119, 6.860942840576172, -6.402832508087158, 2.857851266860962,6
1627739461384,13.006250381469727, -5.932402610778809, 15.208294868469238, -2.584196090698242, 5.772130489349365, 1.8266606330871582, 6.375248908996582, -6.732624530792236, 3.2037596702575684,6
1627739461400,10.721563339233398, -6.2563910484313965, 14.256690979003906, -1.697896957397461, 4.647212028503418, 1.390967845916748, 5.797178745269775, -7.061995506286621, 3.5717010498046875,5
1627739461416,8.948309898376465, -7.376876354217529, 14.043493270874023, -0.9266461133956909, 3.724694013595581, 1.235439419746399, 5.429943561553955, -7.231750011444092, 3.8017916679382324,5
1627739461433,7.776921272277832, -7.152898788452148, 13.754837989807129, -0.12982898950576782, 3.2069759368896484, 1.2631362676620483, 5.089330196380615, -7.348448276519775, 4.041675090789795,5
1627739461449,8.078152656555176, -5.5084028244018555, 11.77557373046875, 0.5327649116516113, 3.004575729370117, 1.2982898950576782, 4.750744819641113, -7.4200849533081055, 4.313800811767578,4
1627739461465,8.523112297058105, -4.5789570808410645, 7.614028453826904, 0.5093291401863098, 2.8884620666503906, 1.2066771984100342, 4.411401748657227, -7.456636428833008, 4.60154390335083,4
1627739461482,9.860987663269043, -2.9440431594848633, 5.4317474365234375, -0.02436790242791176, 2.613624095916748, 0.9265129566192627, 4.004194736480713, -7.5096564292907715, 4.879302978515625,4
1627739461498,10.5784330368042, -2.6050829887390137, 7.036718368530273, -0.40147119760513306, 2.222672462463379, 0.4034685492515564, 3.7755250930786133, -7.552612781524658, 4.99395227432251,3
1627739461514,11.357563018798828, -2.1098177433013916, 3.91660737991333, -0.5165196657180786, 2.168344020843506, -0.15153373777866364, 3.616382598876953, -7.577550411224365, 5.073324680328369,3
1627739461531,8.360219955444336, -4.67896842956543, 4.1058502197265625, -0.8659260869026184, 2.305763006210327, -0.585096001625061, 3.5285725593566895, -7.598142623901367, 5.104266166687012,3
1627739461547,6.28094482421875, -5.517984867095947, 3.1494553089141846, -0.816923975944519, 2.240781784057617, -0.4487422704696655, 3.388153553009033, -7.643872261047363, 5.131058692932129,3
1627739461563,4.938279151916504, -6.990605354309082, 3.5381217002868652, -0.6432859897613525, 2.0809922218322754, -0.26977798342704773, 3.2755231857299805, -7.679727554321289, 5.1506171226501465,3
1627739461580,3.877082109451294, -7.543362140655518, 3.1829922199249268, -0.7285071015357971, 2.0319902896881104, 0.021038955077528954, 3.133593797683716, -7.727383613586426, 5.167616367340088,3
1627739461596,3.829172372817993, -7.624209403991699, 4.8538384437561035, -0.8627303242683411, 1.9382469654083252, 0.27776744961738586, 2.9599945545196533, -7.803388595581055, 5.155742645263672,2
1627739461612,3.4231388568878174, -7.4337687492370605, 6.809147834777832, -0.08082687109708786, 1.5004236698150635, 0.3693801164627075, 2.775435447692871, -7.85805606842041, 5.175328731536865,2
1627739461629,0.6647452712059021, -9.764569282531738, 7.6092376708984375, 0.9290429353713989, 0.5672528147697449, 0.5504749417304993, 2.6001713275909424, -7.8300628662109375, 5.307104587554932,2
1627739461645,-0.35333308577537537, -10.446083068847656, 7.419994831085205, 1.2624704837799072, 0.3211769461631775, 1.071388840675354, 2.455355405807495, -7.769568920135498, 5.462704658508301,2
1627739461661,-0.2766777575016022, -10.417936325073242, 8.058988571166992, 1.439304232597351, 0.19228006899356842, 1.5731278657913208, 2.265510320663452, -7.704374313354492, 5.634376049041748,2
1627739461677,-0.45334431529045105, -9.5597562789917, 6.506119728088379, 1.6438348293304443, 0.0378168560564518, 2.101498603820801, 2.0256030559539795, -7.6320953369140625, 5.821009635925293,2
1627739461694,0.5455702543258667, -7.419395923614502, 3.3866078853607178, 1.6289210319519043, -0.6695181131362915, 2.367814540863037, 1.7776377201080322, -7.551323413848877, 6.004467964172363,1
1627739461710,0.8420107364654541, -6.5043230056762695, 4.991578578948975, 1.612942099571228, -1.3981584310531616, 2.2825934886932373, 1.5577832460403442, -7.440365791320801, 6.200838088989258,1
1627739461727,1.1624059677124023, -5.312572479248047, 4.319047927856445, 1.595897912979126, -2.2184112071990967, 1.9885807037353516, 1.5001059770584106, -7.3339033126831055, 6.340319633483887,1
1627739461743,0.655762255191803, -6.375566005706787, 6.4258713722229, 1.528786301612854, -2.1907143592834473, 1.9033596515655518, 1.507980227470398, -7.224167346954346, 6.46324348449707,1
1627739461760,-0.4198076128959656, -6.704345703125, 7.884118556976318, 1.2837756872177124, -1.6900405883789062, 1.9395785331726074, 1.4950690269470215, -7.121960639953613, 6.578644275665283,1
1627739461776,-0.6012651324272156, -6.589961528778076, 8.887824058532715, 1.1484872102737427, -0.43516016006469727, 2.2314608097076416, 1.379719614982605, -7.040521621704102, 6.690556526184082,1
1627739461792,1.7978066205978394, -2.6961112022399902, 2.9602127075195312, 0.5338301658630371, 0.10492845624685287, 2.0791280269622803, 1.07932710647583, -6.9692301750183105, 6.8191633224487305,1
1627739461808,0.7935022711753845, -4.0064377784729, 6.875622272491455, 0.199337437748909, 0.6183854937553406, 1.6807194948196411, 0.8590601086616516, -6.967992305755615, 6.851656436920166,0
1627739461825,-0.8360220193862915, -5.422165870666504, 8.504548072814941, 1.1602051258087158, 0.6748444437980652, 1.5411700010299683, 0.6105214357376099, -6.916500568389893, 6.930036544799805,0
1627739461841,-1.969083309173584, -5.594041347503662, 8.665044784545898, 1.5021547079086304, 0.42557278275489807, 1.4676668643951416, 0.39481163024902344, -6.7756452560424805, 7.083140850067139,0
1627739461857,-3.6992177963256836, -5.64135217666626, 8.954298973083496, 1.1751188039779663, 1.0583393573760986, 1.8255953788757324, 0.1562504768371582, -6.6287455558776855, 7.229898929595947,0
1627739461874,-2.1744956970214844, -3.7543137073516846, 4.39510440826416, 0.6510091423988342, 1.465269923210144, 1.9555574655532837, -0.32951590418815613, -6.478695392608643, 7.358942985534668,0
1627739461890,-0.36770597100257874, -1.8475128412246704, 1.999026894569397, 0.500806987285614, 0.7749792337417603, 1.9150774478912354, -0.669865071773529, -6.399251937866211, 7.405198574066162,0
1627739461906,0.2724856734275818, -0.44615787267684937, 1.2749934196472168, 0.34847432374954224, -0.23808640241622925, 1.5369089841842651, -0.8760764002799988, -6.326127529144287, 7.446389675140381,0
1627739461922,1.754688024520874, 0.9887337684631348, 0.6401916146278381, -0.16178689897060394, -0.9880319237709045, 1.0234519243240356, -0.9107867479324341, -6.273902893066406, 7.486302375793457,0
1627739461939,2.189467430114746, 0.7360107898712158, 2.5481903553009033, -0.7487471103668213, -1.414137363433838, 0.2841590344905853, -0.7681177854537964, -6.312739849090576, 7.46963357925415,0
1627739461955,2.633828639984131, -1.3947674036026, 3.4524834156036377, -0.8914924263954163, -1.892440676689148, -0.323041170835495, -0.5423696041107178, -6.398226737976074, 7.416511058807373,0
1627739461971,-0.10959314554929733, -7.953587532043457, 2.9889583587646484, -1.0875009298324585, -2.0596871376037598, -0.6660560369491577, -0.2419329434633255, -6.513556003570557, 7.331518650054932,0
1627739461988,-0.6689373850822449, -5.9419846534729, 0.8911179900169373, -2.045172691345215, -1.5792531967163086, -0.4466117322444916, 0.022001026198267937, -6.68831205368042, 7.1764960289001465,0
1627739462004,0.8318299055099487, -8.659055709838867, 6.009057998657227, -2.516019344329834, -0.8665918707847595, -0.5595296621322632, 0.20468764007091522, -6.953383445739746, 6.916985034942627,0
1627739462020,-1.2282816171646118, -8.696784973144531, 5.043680191040039, -2.3295981884002686, -1.2873709201812744, -0.5456812381744385, 0.41879603266716003, -7.283321380615234, 6.558501720428467,0
1627739462037,-0.1383388787508011, -11.366545677185059, 5.2610697746276855, -1.8736653327941895, -2.2034976482391357, -0.3763043284416199, 0.6397275328636169, -7.492095470428467, 6.3004255294799805,0
1627739462053,-0.5827001333236694, -6.866639137268066, 6.922933101654053, -1.7969664335250854, -3.2666306495666504, 0.008255792781710625, 0.9244591593742371, -7.666683673858643, 6.050079345703125,0
1627739462069,2.304450273513794, -4.750234127044678, 0.7018752098083496, -2.4840614795684814, -3.2847399711608887, -0.1525990068912506, 1.2257750034332275, -7.840237617492676, 5.767518520355225,1
1627739462086,5.124527454376221, -8.453643798828125, 13.375753402709961, -3.0348026752471924, -2.743586301803589, -0.6404896974563599, 1.542510747909546, -8.07738208770752, 5.349080562591553,1
1627739462102,1.721151351928711, -8.33926010131836, 16.23056411743164, -0.9042755961418152, -1.0455561876296997, -1.1166625022888184, 1.8990195989608765, -8.238367080688477, 4.975854396820068,1
1627739462118,2.705693006515503, -8.311112403869629, 10.701201438903809, -0.3673827648162842, -0.1794968992471695, -1.051681399345398, 2.0752511024475098, -8.229805946350098, 4.91932487487793,2
1627739462134,3.140472412109375, -6.356402397155762, 4.896956920623779, -1.4976273775100708, 1.6953668594360352, -0.8727171421051025, 2.1438419818878174, -8.253474235534668, 4.849766254425049,2
1627739462151,1.8403264284133911, -6.561814785003662, 2.089456081390381, -2.898448944091797, 2.6658220291137695, -0.7885613441467285, 2.104077100753784, -8.378034591674805, 4.649464130401611,2
1627739462167,-0.3054235279560089, -8.167983055114746, 1.1893551349639893, -3.8337502479553223, 3.1856706142425537, -0.4924180507659912, 1.9925315380096436, -8.588078498840332, 4.302421569824219,1
1627739462183,-1.2803832292556763, -10.674851417541504, 0.2856608033180237, -4.027628421783447, 2.2152154445648193, -0.3283674716949463, 1.8157017230987549, -8.903837203979492, 3.6960830688476562,1
1627739462200,-0.1622936725616455, -12.162443161010742, 6.065950393676758, -3.160503625869751, 0.47350963950157166, -0.3709780275821686, 1.7889325618743896, -9.087953567504883, 3.2318623065948486,1
1627739462216,-0.13354793190956116, -10.703597068786621, 3.3674440383911133, -1.5743262767791748, -1.9243985414505005, -0.5350285768508911, 1.8746355772018433, -9.182085037231445, 2.900203227996826,1
1627739462232,1.9409364461898804, -14.554927825927734, 2.8182804584503174, -1.0576735734939575, -3.164365291595459, -0.7352981567382812, 2.0594475269317627, -9.214101791381836, 2.6636693477630615,2
1627739462248,3.026088237762451, -10.498783111572266, 1.4265074729919434, -1.0310419797897339, -2.8000452518463135, -0.6436854600906372, 2.2784311771392822, -9.22797679901123, 2.4267892837524414,2
1627739462265,2.88295841217041, -10.45566463470459, 1.573230504989624, -1.791640043258667, -2.033055543899536, -0.5350285768508911, 2.506194829940796, -9.260741233825684, 2.0478663444519043,2
1627739462281,2.662574291229248, -11.380319595336914, 3.135681390762329, -2.500040292739868, -1.165930986404419, -0.3837611973285675, 2.6140267848968506, -9.305998802185059, 1.6737263202667236,2
1627739462297,2.9781787395477295, -12.214545249938965, 3.5237488746643066, -2.8100321292877197, -0.2221074402332306, -0.17390426993370056, 2.6632888317108154, -9.355743408203125, 1.27007257938385,2
1627739462313,2.3140323162078857, -11.671370506286621, 1.2935583591461182, -2.7013752460479736, 0.06338317692279816, 0.3171822130680084, 2.650799036026001, -9.404570579528809, 0.873744785785675,2
1627739462330,2.261331796646118, -10.570049285888672, -0.2209828943014145, -2.2912487983703613, -0.06657896935939789, 0.5408875346183777, 2.586589813232422, -9.449249267578125, 0.5072916150093079,2
1627739462346,2.199049234390259, -10.13167667388916, -0.37249690294265747, -1.3708610534667969, -0.33182957768440247, 0.5568665266036987, 2.4763667583465576, -9.491368293762207, 0.13279962539672852,2
1627739462362,2.5481903553009033, -9.350152015686035, 0.47969457507133484, -0.5026712417602539, -0.240216925740242, 0.5249086022377014, 2.39972186088562, -9.511963844299316, -0.0013565541012212634,2
1627739462379,3.465658664703369, -7.939214706420898, 0.716248095035553, -0.03715106472373009, 0.11877688020467758, 0.45247069001197815, 2.3317480087280273, -9.528813362121582, -0.02802044339478016,2
1627739462395,3.030879259109497, -8.129654884338379, 1.743309497833252, -0.05206475406885147, 0.7856318354606628, 0.25433167815208435, 2.2877535820007324, -9.539511680603027, -0.00643193768337369,2
1627739462411,1.1138975620269775, -9.493281364440918, 0.10061009973287582, -0.35886064171791077, 1.1265162229537964, 0.1254347860813141, 2.251993179321289, -9.548014640808105, 0.007818897254765034,2
1627739462427,-0.25272297859191895, -11.442602157592773, -0.5479657053947449, -0.5665870308876038, 0.8868318796157837, 0.09134634584188461, 2.229713201522827, -9.553197860717773, -0.0300979595631361,2
1627739462444,0.16768349707126617, -11.385110855102539, -1.4947786331176758, -0.6070670485496521, 0.240216925740242, 0.03488738089799881, 2.2116785049438477, -9.55688190460205, -0.10308700054883957,2
1627739462460,0.3305760324001312, -10.13167667388916, -1.1588127613067627, -0.5793702006340027, -0.2647179961204529, 0.11478214710950851, 2.2018067836761475, -9.558276176452637, -0.16578727960586548,2
1627739462476,1.9121907949447632, -6.890594005584717, -1.0827562808990479, -0.3290332853794098, -0.7323686480522156, 0.4695149064064026, 2.1582746505737305, -9.56629467010498, -0.2529727816581726,2
1627739462493,1.6684508323669434, -6.5043230056762695, 0.11019201576709747, -0.5708481073379517, -0.46072646975517273, 1.056475043296814, 2.015803337097168, -9.593708038330078, -0.36526796221733093,2
1627739462509,1.133061408996582, -5.8659281730651855, 1.8002021312713623, -0.7593997120857239, 0.5384907126426697, 1.8128122091293335, 1.795292615890503, -9.633453369140625, -0.45785513520240784,1
1627739462525,1.6355129480361938, -1.1755810976028442, 3.334506034851074, -0.5889575481414795, 1.9361164569854736, 1.7638100385665894, 1.5426411628723145, -9.67495059967041, -0.5016905665397644,1
1627739462541,0.7174458503723145, -1.056406021118164, 1.4923831224441528, -0.3940143585205078, 2.7691526412963867, 1.5986942052841187, 1.3252785205841064, -9.707724571228027, -0.4897259771823883,1
1627739462558,0.16289253532886505, -1.0707789659500122, -1.4618407487869263, -0.30240169167518616, 2.5901882648468018, 1.5433005094528198, 1.0516300201416016, -9.741079330444336, -0.49147722125053406,1
1627739462574,-0.24793203175067902, -1.2612195014953613, -1.9205749034881592, -0.12024161964654922, 1.468465805053711, 1.5102773904800415, 0.8369430303573608, -9.760001182556152, -0.5272925496101379,0
1627739462590,-0.19523149728775024, -0.6270164847373962, -0.9360332489013672, 0.16844479739665985, 0.24128219485282898, 1.4112077951431274, 0.6099660396575928, -9.775766372680664, -0.5463129878044128,0
1627739462606,0.229965940117836, -0.4509488344192505, -0.4629262387752533, 0.3921501338481903, -0.32756853103637695, 0.678306519985199, 0.4335412383079529, -9.786758422851562, -0.5172868371009827,0
1627739462623,-0.1664857566356659, -0.8845304250717163, 0.12935584783554077, 0.4528701603412628, -0.8751139640808105, 0.30652958154678345, 0.35956284403800964, -9.792753219604492, -0.45694413781166077,0
1627739462639,0.12456488609313965, -1.9283602237701416, 1.3079313039779663, 0.5402217507362366, -1.2436951398849487, -0.021571585908532143, 0.3191322684288025, -9.798803329467773, -0.34312164783477783,0
1627739462655,-3.789647102355957, -29.221843719482422, 3.9687089920043945, 1.1570093631744385, -0.5811012387275696, 0.34381380677223206, 0.313882052898407, -9.802602767944336, -0.2157774716615677,0
1627739462672,-3.2255117893218994, -48.9174690246582, 8.807576179504395, 1.91547691822052, -1.1552783250808716, 0.6878939270973206, 0.21657328307628632, -9.807597160339355, 0.016224270686507225,0
1627739462688,-2.8530149459838867, -35.00333023071289, 5.389227867126465, -0.09041424095630646, -1.8615480661392212, 1.002146601676941, 0.08805760741233826, -9.80788516998291, 0.18373063206672668,0
1627739462704,-1.4426769018173218, -19.917205810546875, -4.6999287605285645, -0.3343595862388611, -1.95209538936615, 0.8562055826187134, -0.09288828819990158, -9.808526992797852, 0.14244753122329712,0
1627739462720,0.6222255229949951, -8.997417449951172, -6.825916290283203, 0.3878890872001648, -4.116710662841797, 0.37151065468788147, -0.1754574030637741, -9.807326316833496, 0.14735861122608185,0
1627739462737,-1.7343264818191528, -6.17075252532959, -3.7153871059417725, -0.13941636681556702, -1.5707310438156128, 0.03488738089799881, -0.18478605151176453, -9.80679988861084, 0.16928625106811523,0
1627739462753,-0.7114571332931519, -5.117341041564941, -1.9301568269729614, -0.35886064171791077, -0.05699159950017929, 0.14141373336315155, -0.2038465142250061, -9.807249069213867, 0.11146781593561172,0
1627739462769,0.28266647458076477, -4.526256561279297, -0.36770597100257874, -0.2640521824359894, 0.5960149168968201, 0.09241160750389099, -0.23101209104061127, -9.807218551635742, 0.035019561648368835,0
1627739462786,0.7509825229644775, -5.6132049560546875, 1.3270951509475708, -0.3087932765483856, 1.1307772397994995, -0.0780305564403534, -0.22524558007717133, -9.807414054870605, -0.005402242764830589,0
1627739462802,0.770146369934082, -8.854287147521973, 2.292473077774048, -0.44408172369003296, 1.7571521997451782, -0.24953797459602356, -0.19245468080043793, -9.807947158813477, -0.05719395726919174,0
1627739462818,0.43537822365760803, -12.343301773071289, 2.217015504837036, -0.4941491186618805, 1.9989670515060425, -0.31558433175086975, -0.14247530698776245, -9.808146476745605, -0.12680622935295105,0
1627739462834,-0.8120672106742859, -12.76310920715332, 1.369614839553833, -0.34181642532348633, 1.3970930576324463, -0.21864533424377441, -0.07968205958604813, -9.807472229003906, -0.20798839628696442,0
1627739462851,-1.7822359800338745, -10.713178634643555, 1.2324737310409546, -0.0978710874915123, 0.654604434967041, -0.02263684943318367, -0.06667492538690567, -9.806978225708008, -0.23424823582172394,0
1627739462867,-2.293670654296875, -9.569337844848633, 0.4749036133289337, 0.15885742008686066, 0.06551370769739151, 0.02316948212683201, -0.07519081234931946, -9.807164192199707, -0.22364255785942078,0
1627739462883,-2.6715574264526367, -9.621439933776855, 0.04850843921303749, 0.2877542972564697, -0.4138548672199249, 0.07217160612344742, -0.09081603586673737, -9.807777404785156, -0.18811194598674774,0
1627739462899,-2.160122871398926, -9.893326759338379, -0.13594341278076172, 0.2611227333545685, -0.7174549698829651, 0.23728744685649872, -0.12281960248947144, -9.808189392089844, -0.14303459227085114,0
1627739462916,-0.5683273077011108, -9.807687759399414, -0.7180446982383728, 0.06617949903011322, -0.8932234644889832, 0.2607232332229614, -0.1852155327796936, -9.807649612426758, -0.10881142318248749,0
1627739462932,0.4689149260520935, -9.735823631286621, -0.9929258823394775, -0.1351553052663803, -1.0093371868133545, 0.11265161633491516, -0.21544767916202545, -9.806964874267578, -0.1146685779094696,0
1627739462948,0.5838978886604309, -9.626230239868164, -0.2730845510959625, -0.2970753610134125, -0.7163897156715393, -0.013049477711319923, -0.2214922457933426, -9.806425094604492, -0.14512205123901367,0
1627739462965,0.28266647458076477, -9.34536075592041, 0.631208598613739, -0.3908185660839081, 0.03568632900714874, -0.011984214186668396, -0.21643878519535065, -9.805703163146973, -0.19358845055103302,0
1627739462981,-0.23355916142463684, -9.116592407226562, 0.8533892035484314, -0.38868802785873413, 0.7270423769950867, 0.016777900978922844, -0.2145603746175766, -9.804460525512695, -0.250247985124588,0
1627739462997,-0.5874910950660706, -9.09263801574707, 1.0713777542114258, -0.32157641649246216, 0.8740487098693848, 0.01784316450357437, -0.21441799402236938, -9.802474975585938, -0.31880542635917664,0
1627739463013,-1.0605981349945068, -9.063892364501953, 0.8108695149421692, -0.21185427904129028, 0.6503433585166931, 0.028495799750089645, -0.2160780131816864, -9.801167488098145, -0.35572707653045654,0
1627739463030,-1.4384849071502686, -9.030355453491211, 0.7354119420051575, -0.10213214159011841, 0.23808640241622925, 0.05938844010233879, -0.2239910513162613, -9.80018138885498, -0.3773488998413086,0
1627739463046,-1.3666205406188965, -8.920762062072754, 0.7114571332931519, 0.031025800853967667, -0.2167811244726181, 0.1062600389122963, -0.24062258005142212, -9.799662590026855, -0.38059762120246887,0
1627739463062,-0.9887337684631348, -9.002208709716797, 0.7354119420051575, 0.10239845514297485, -0.3637875020503998, 0.14460952579975128, -0.2734798491001129, -9.799570083618164, -0.3602282702922821,0
1627739463079,-0.6545644998550415, -9.21660327911377, 0.6545644998550415, 0.14927005767822266, -0.4245075285434723, 0.11904320120811462, -0.297789067029953, -9.799761772155762, -0.3348466753959656,0
1627739463095,-0.41082456707954407, -9.583710670471191, 0.6401916146278381, 0.20146796107292175, -0.4000064432621002, 0.052996858954429626, -0.3140852451324463, -9.800300598144531, -0.3026255965232849,0
1627739463112,-0.41501665115356445, -10.079574584960938, 0.5599430799484253, 0.2557964026927948, -0.2743053436279297, -0.008788423612713814, -0.3199760317802429, -9.801238059997559, -0.2635784447193146,0
1627739463128,-0.5491634607315063, -10.627540588378906, 0.2239772379398346, 0.31971222162246704, -0.14753900468349457, -0.06737791746854782, -0.312911719083786, -9.802948951721191, -0.20104891061782837,0
1627739463144,-0.6641464233398438, -10.751506805419922, -0.06946887820959091, 0.33249539136886597, -0.13262531161308289, -0.08335687220096588, -0.30302026867866516, -9.80417251586914, -0.14999453723430634,0
1627739463161,-0.5156267285346985, -10.641913414001465, -0.19283601641654968, 0.28136274218559265, -0.1656484752893448, -0.1110537201166153, -0.2894965410232544, -9.805185317993164, -0.1032899022102356,0
1627739463177,-0.10001122951507568, -10.484410285949707, -0.28266647458076477, 0.1514005810022354, -0.23276008665561676, -0.1440768986940384, -0.2705904543399811, -9.806015968322754, -0.07039404660463333,0
1627739463193,0.51682448387146, -10.102931022644043, 0.04850843921303749, 0.036352116614580154, -0.36165696382522583, -0.1675126850605011, -0.24605610966682434, -9.806758880615234, -0.055176667869091034,0
1627739463210,1.0617958307266235, -10.022083282470703, 0.8204513788223267, -0.017976321280002594, -0.49268439412117004, -0.1952095478773117, -0.20412513613700867, -9.807748794555664, -0.050004806369543076,0
1627739463226,1.319908618927002, -9.888535499572754, 1.237264633178711, 0.02143842913210392, -0.511859118938446, -0.19201375544071198, -0.17001307010650635, -9.808427810668945, -0.04412601515650749,0
1627739463242,1.5540666580200195, -9.960399627685547, 1.1564172506332397, 0.11518161743879318, -0.6162549257278442, -0.21544954180717468, -0.1330975443124771, -9.809060096740723, -0.02696443535387516,0
1627739463259,1.5971853733062744, -9.978964805603027, 2.0702922344207764, 0.35699644684791565, -0.8697876930236816, -0.3273022174835205, -0.08667562156915665, -9.809611320495605, 0.011854645796120167,0
1627739463275,-0.4054347574710846, -11.0371675491333, 1.5876034498214722, 0.5242428183555603, -1.0583393573760986, -0.2474074512720108, -0.03572678193449974, -9.809532165527344, 0.08890165388584137,0
1627739463291,-0.7593666911125183, -10.661077499389648, -0.38686978816986084, 0.3442132771015167, -1.054078221321106, -0.2143842875957489, 0.00404831999912858, -9.808363914489746, 0.1792142391204834,0
1627739463307,-1.3235019445419312, -10.470037460327148, -0.8462027907371521, 0.2802974581718445, -1.1201245784759521, -0.24101586639881134, 0.03920792043209076, -9.807476043701172, 0.21909458935260773,0
1627739463324,-1.8205636739730835, -10.155631065368652, -0.6946887969970703, 0.22809955477714539, -0.9773792624473572, -0.1728390008211136, 0.06832968443632126, -9.806473731994629, 0.25407615303993225,0
1627739463340,-1.8924280405044556, -9.859789848327637, -1.0402365922927856, 0.08322371542453766, -0.7462170720100403, -0.07376950234174728, 0.08425311744213104, -9.805809020996094, 0.2740958333015442,0
1627739463356,-1.2420556545257568, -10.046037673950195, -1.1252760887145996, -0.04673843830823898, -0.760065495967865, 7.989476434886456E-4, 0.08487848192453384, -9.805976867675781, 0.26781418919563293,0
1627739463373,-1.1228805780410767, -10.479619979858398, -0.9929258823394775, -0.13728584349155426, -0.7728486657142639, -0.005592633504420519, 0.08284540474414825, -9.806535720825195, 0.247187539935112,0
1627739463389,-1.2947561740875244, -10.579630851745605, -1.0210727453231812, -0.23102903366088867, -0.6556696891784668, -0.07696528732776642, 0.08570527285337448, -9.807307243347168, 0.21326258778572083,0
1627739463406,-1.380993366241455, -10.241270065307617, -1.0594004392623901, -0.3332943320274353, -0.45113909244537354, -0.1483379453420639, 0.09735409915447235, -9.808084487915039, 0.16763851046562195,0
1627739463422,-1.070180058479309, -9.469326972961426, -1.0546094179153442, -0.4973449110984802, -0.23702113330364227, -0.23568955063819885, 0.12003778666257858, -9.808728218078613, 0.10283147543668747,0
1627739463438,-0.6018639802932739, -8.301530838012695, -0.5288019180297852, -0.7050712704658508, -0.07510107755661011, -0.2953443229198456, 0.16713857650756836, -9.808548927307129, -0.023651404306292534,0
1627739463454,-0.5874910950660706, -7.424186706542969, 0.4749036133289337, -0.7956187129020691, 0.04420843720436096, -0.3326285481452942, 0.21106110513210297, -9.806769371032715, -0.13720083236694336,0
1627739463471,-0.7833214998245239, -6.628289222717285, 1.743309497833252, -0.7700523734092712, 0.28069692850112915, -0.3262369632720947, 0.2562717795372009, -9.803534507751465, -0.2472623884677887,0
1627739463487,-1.1845641136169434, -6.533068656921387, 3.036268949508667, -0.5388901829719543, 0.62477707862854, -0.22184112668037415, 0.29443100094795227, -9.800039291381836, -0.3296385407447815,0
1627739463503,-1.4953774213790894, -7.476887226104736, 3.888460636138916, -0.1820269078016281, 0.7856318354606628, -0.033289484679698944, 0.3121422231197357, -9.798172950744629, -0.36674264073371887,0
1627739463519,-1.4953774213790894, -9.245349884033203, 4.162742614746094, 0.37510591745376587, 0.5384907126426697, 0.23089586198329926, 0.2865232229232788, -9.800642967224121, -0.3184569180011749,0
1627739463536,-1.2612195014953613, -10.761088371276855, 3.60878849029541, 0.8342344760894775, -0.021837901324033737, 0.3640538156032562, 0.23383542895317078, -9.805085182189941, -0.20436254143714905,0
1627739463552,-0.8503949046134949, -11.752217292785645, 1.8385298252105713, 1.074984073638916, -0.5459475517272949, 0.48016753792762756, 0.16444885730743408, -9.808512687683105, -0.046673648059368134,0
1627739463568,0.4497511088848114, -11.68574333190918, 0.09102818369865417, 1.1143988370895386, -1.0849709510803223, 0.4684496223926544, 0.08842978626489639, -9.808856964111328, 0.12085961550474167,0
1627739463584,1.2911629676818848, -11.719280242919922, -1.0402365922927856, 1.0227861404418945, -1.3459604978561401, 0.2948116660118103, 0.03465995565056801, -9.805957794189453, 0.27944430708885193,0
1627739463601,2.2086312770843506, -11.47134780883789, -1.3905752897262573, 0.7458176016807556, -1.1691267490386963, 0.013582110404968262, 0.02098478004336357, -9.799623489379883, 0.45062974095344543,0
1627739463617,2.8973312377929688, -10.903619766235352, -0.7797282934188843, 0.34314802289009094, -0.6801707744598389, -0.2474074512720108, 0.058447014540433884, -9.795975685119629, 0.5211120843887329,0
1627739463633,2.711082935333252, -10.226897239685059, 0.6922932863235474, -0.02330263890326023, -0.0942758247256279, -0.3709780275821686, 0.12146392464637756, -9.794571876525879, 0.5364095568656921,0
1627739463650,1.5684396028518677, -9.521428108215332, 1.5115469694137573, -0.21291954815387726, 0.28921905159950256, -0.3763043284416199, 0.1848287433385849, -9.794534683227539, 0.5186960101127625,0
1627739463666,0.51682448387146, -9.245349884033203, 1.7864280939102173, -0.21398481726646423, 0.034621063619852066, -0.3219758868217468, 0.24057024717330933, -9.7947416305542, 0.49119478464126587,0
1627739463682,-0.07126548886299133, -8.801587104797363, 2.316427707672119, -0.12343741208314896, -0.21571587026119232, -0.2197106033563614, 0.2833747863769531, -9.794611930847168, 0.4705517888069153,0
1627739463698,0.3257850706577301, -8.51113510131836, 2.1319758892059326, 0.024634219706058502, -0.3158506453037262, -0.1387505680322647, 0.31900128722190857, -9.793474197387695, 0.4714282751083374,0
1627739463714,0.4257963001728058, -8.792604446411133, 1.7720552682876587, 0.10772477090358734, -0.33715590834617615, -0.13129372894763947, 0.34200891852378845, -9.791854858398438, 0.4886132478713989,0
1627739463731,0.5455702543258667, -9.245349884033203, 1.298349380493164, 0.1002679318189621, -0.29987168312072754, -0.08548739552497864, 0.3611275553703308, -9.790155410766602, 0.5084850192070007,0
1627739463747,0.6509712934494019, -9.450162887573242, 1.1378523111343384, 0.06511422991752625, -0.260456919670105, -0.040746331214904785, 0.3744390308856964, -9.788873672485352, 0.5233392715454102,0
1627739463764,0.6791181564331055, -9.731032371520996, 1.133061408996582, 0.016112111508846283, -0.2508695721626282, 0.00719052879139781, 0.38276752829551697, -9.788084030151367, 0.532014787197113,0
1627739463780,0.6174346208572388, -9.912489891052246, 1.1851630210876465, -0.001997369108721614, -0.2583264112472534, 0.04447475075721741, 0.38133758306503296, -9.788042068481445, 0.533782958984375,0
1627739463796,0.530598521232605, -9.898117065429688, 1.2702025175094604, -0.02010684832930565, -0.21571587026119232, 0.06578002125024796, 0.37504422664642334, -9.78828239440918, 0.5338537096977234,0
1627739463812,0.32518622279167175, -9.654975891113281, 1.1186884641647339, -0.07230476289987564, -0.12836425006389618, 0.06897581368684769, 0.3669440746307373, -9.788832664489746, 0.5293724536895752,0
1627739463829,0.3683048188686371, -9.411835670471191, 1.2606205940246582, -0.16711321473121643, -0.038882117718458176, 0.07643266022205353, 0.3568500280380249, -9.789910316467285, 0.5161623954772949,0
1627739463845,0.5880900025367737, -9.28307819366455, 1.525919795036316, -0.24700798094272614, -0.06764423102140427, 0.08388949930667877, 0.34239718317985535, -9.792219161987305, 0.48097091913223267,0
1627739463861,0.8030841946601868, -9.250140190124512, 1.781637191772461, -0.2960101068019867, -0.16671374440193176, 0.1254347860813141, 0.3288123309612274, -9.794388771057129, 0.44494330883026123,0
1627739463878,1.0659879446029663, -9.302242279052734, 1.946925163269043, -0.3183806240558624, -0.30413272976875305, 0.17443689703941345, 0.31015709042549133, -9.796777725219727, 0.4038449823856354,0
1627739463894,1.3432645797729492, -9.397461891174316, 2.1032302379608154, -0.2853574752807617, -0.3499390780925751, 0.1861547976732254, 0.288648396730423, -9.799016952514648, 0.3633974492549896,0
1627739463910,1.2714002132415771, -9.450162887573242, 1.9421342611312866, -0.1916142702102661, -0.3009369373321533, 0.1904158592224121, 0.2671481966972351, -9.8007230758667, 0.33255746960639954,0
1627739463926,0.9414230585098267, -9.469326972961426, 1.4642362594604492, -0.13195951282978058, -0.2125200778245926, 0.22770008444786072, 0.23217949271202087, -9.802395820617676, 0.3086341917514801,0
1627739463943,1.0659879446029663, -9.631021499633789, 1.2181007862091064, -0.15219952166080475, -0.2583264112472534, 0.2468748241662979, 0.20070041716098785, -9.803627014160156, 0.29106271266937256,0
1627739463959,1.1899539232254028, -9.845417022705078, 1.0665868520736694, -0.17989638447761536, -0.39361485838890076, 0.2522011399269104, 0.16810102760791779, -9.804883003234863, 0.26861992478370667,0
1627739463975,1.1043156385421753, -9.926862716674805, 1.3079313039779663, -0.16711321473121643, -0.43516016006469727, 0.22130849957466125, 0.13739992678165436, -9.805984497070312, 0.24478082358837128,0
1627739463991,0.7599655389785767, -10.065201759338379, 1.525919795036316, -0.111719511449337, -0.32863378524780273, 0.16591478884220123, 0.11272116750478745, -9.806729316711426, 0.22688192129135132,0
1627739464007,0.6833102703094482, -10.374817848205566, 1.3977617025375366, -0.06378265470266342, -0.20825901627540588, 0.12756530940532684, 0.0884862095117569, -9.807211875915527, 0.21655748784542084,0
1627739464024,0.9270501732826233, -10.813190460205078, 1.21330988407135, -0.10639319568872452, -0.22743375599384308, 0.14674004912376404, 0.07166347652673721, -9.807522773742676, 0.20848014950752258,0
1627739464040,1.6061683893203735, -11.280308723449707, 1.2228918075561523, -0.25553008913993835, -0.34674328565597534, 0.17763268947601318, 0.05207442864775658, -9.808109283447266, 0.18544036149978638,0
1627739464056,2.0553205013275146, -11.580941200256348, 0.962383508682251, -0.357795387506485, -0.5896233320236206, 0.17976321280002594, 0.032567236572504044, -9.808899879455566, 0.1433836668729782,0
1627739464072,2.4326083660125732, -11.618669509887695, 1.0851517915725708, -0.4600606858730316, -0.788827657699585, 0.1723063737154007, 0.014632073231041431, -9.809616088867188, 0.0858406350016594,0
1627739464089,2.6146647930145264, -11.404274940490723, 1.3127222061157227, -0.6209154725074768, -0.6535391807556152, 0.0774979218840599, 0.0016530079301446676, -9.809988975524902, -0.015338417142629623,0
1627739464105,2.188868522644043, -11.83785629272461, 0.6970842480659485, -0.7391597032546997, -0.38189697265625, 0.011451583355665207, 0.004090712405741215, -9.80931282043457, -0.11615786701440811,0
1627739464121,0.6785193085670471, -14.55013656616211, 1.0192761421203613, -0.8179892301559448, -0.08575371652841568, -0.2090579718351364, 0.019759204238653183, -9.807355880737305, -0.22696903347969055,0
1627739464137,-1.5247220993041992, -13.673391342163086, 0.5030505061149597, -0.9127976894378662, 0.2881537973880768, -0.33049800992012024, 0.061691928654909134, -9.803414344787598, -0.3541108965873718,0
1627739464154,-2.4619531631469727, -10.841936111450195, 0.11019201576709747, -0.8946881890296936, 0.49801069498062134, -0.2101232260465622, 0.09911586344242096, -9.797505378723145, -0.4849914610385895,0
1627739464170,-2.6098737716674805, -8.878242492675781, 0.5832990407943726, -1.015062928199768, 0.8026760816574097, -0.16325163841247559, 0.12807507812976837, -9.78637981414795, -0.6681795120239258,0
1627739464186,-2.4332072734832764, -8.654265403747559, 1.0144851207733154, -0.9756482243537903, 0.9741834998130798, -0.16964322328567505, 0.15039390325546265, -9.775303840637207, -0.8105095028877258,0
1627739464202,-1.8403264284133911, -8.52071762084961, 1.1612082719802856, -0.7881618738174438, 1.0135982036590576, -0.1866874396800995, 0.18093186616897583, -9.764245986938477, -0.9289349317550659,0
1627739464219,-1.0851517915725708, -8.010479927062988, 0.7683497667312622, -0.6336986422538757, 0.8783097863197327, -0.13129372894763947, 0.20156347751617432, -9.757673263549805, -0.9916152954101562,0
1627739464235,0.4587341547012329, -7.171463966369629, -0.7515813708305359, -0.38762277364730835, 0.35633066296577454, 0.024234745651483536, 0.22415652871131897, -9.74710464477539, -1.0862168073654175,0
1627739464251,1.261818289756775, -6.837893486022949, -2.2475576400756836, -0.17457005381584167, -0.3499390780925751, 0.09347687661647797, 0.21914254128932953, -9.741962432861328, -1.1323671340942383,0
1627739464267,2.327806234359741, -6.804356575012207, -4.183703422546387, 0.20146796107292175, -1.7550216913223267, 0.11265161633491516, 0.19262512028217316, -9.740865707397461, -1.1465355157852173,0
1627739464284,2.3086423873901367, -7.76733922958374, -3.223116397857666, 0.23342587053775787, -2.2301292419433594, -0.06631265580654144, 0.15995994210243225, -9.743398666381836, -1.1299183368682861,0
1627739464300,1.8636822700500488, -7.748175144195557, -1.116292953491211, -0.030759483575820923, -1.582448959350586, -0.3028011620044708, 0.15922144055366516, -9.744168281555176, -1.1233724355697632,0
1627739464316,-1.3241007328033447, -9.802897453308105, -0.36351385712623596, -0.24274691939353943, -0.6727139353752136, -0.5520728230476379, 0.2265038937330246, -9.739171028137207, -1.1547123193740845,0
1627739464332,-3.871692180633545, -11.513867378234863, 0.20002245903015137, -0.23102903366088867, -0.2498043030500412, -0.388022243976593, 0.27980098128318787, -9.733829498291016, -1.18760347366333,0
1627739464349,-5.373058319091797, -11.914511680603027, 0.5503612160682678, -0.16604794561862946, 0.3307643234729767, 0.1723063737154007, 0.2822044789791107, -9.730598449707031, -1.2132289409637451,0
1627739464365,-4.698730945587158, -10.431710243225098, 0.7964966297149658, -0.01904158480465412, 0.6897581219673157, 0.48549383878707886, 0.22355222702026367, -9.731290817260742, -1.2198847532272339,0
1627739464381,-4.025002956390381, -9.221394538879395, 0.673728346824646, 0.11944267153739929, 0.8825708031654358, 0.486559122800827, 0.14394676685333252, -9.734562873840332, -1.2056936025619507,0
1627739464398,-3.542313814163208, -7.981734275817871, 0.4317850172519684, 0.341017484664917, 0.8314381837844849, 0.2745716869831085, 0.062144793570041656, -9.741813659667969, -1.152966856956482,0
1627739464414,-2.811094045639038, -9.735823631286621, -1.2863719463348389, 0.41345539689064026, 0.2583264112472534, 0.2905506193637848, 0.024456564337015152, -9.748856544494629, -1.093326449394226,0
1627739464431,-1.5157390832901, -9.812479019165039, -0.5904854536056519, 0.4635227918624878, -0.054861072450876236, 0.555801272392273, -0.043152451515197754, -9.755755424499512, -1.0293176174163818,0
1627739464447,-0.32039526104927063, -9.817270278930664, -0.07425983250141144, 0.5167859792709351, -0.054861072450876236, 0.7049381136894226, -0.14137867093086243, -9.762508392333984, -0.953707218170166,0
1627739464464,0.03772878646850586, -9.67893123626709, -0.10300558060407639, 0.5029375553131104, 0.14860425889492035, 0.6623275876045227, -0.2778281271457672, -9.769393920898438, -0.8472837805747986,0
1627739464480,-0.3108133375644684, -9.340569496154785, -0.48149117827415466, 0.4198469817638397, 0.4958801567554474, 0.5803022980690002, -0.36418449878692627, -9.772327423095703, -0.777900755405426,0
1627739464496,-1.023468255996704, -9.316615104675293, -0.841411828994751, 0.2600574493408203, 0.7419560551643372, 0.5067991018295288, -0.4379275143146515, -9.772950172424316, -0.7306201457977295,0
1627739464512,-0.7270277142524719, -9.078265190124512, -0.8557847142219543, 0.10239845514297485, 0.8921582102775574, 0.4641885757446289, -0.5051202178001404, -9.771349906921387, -0.7082966566085815,0
1627739464529,-0.22038403153419495, -9.407044410705566, -0.8791406154632568, -0.10958898812532425, 1.007206678390503, 0.33529168367385864, -0.5705137252807617, -9.76683235168457, -0.7208453416824341,0
1627739464545,0.11917505413293839, -9.564546585083008, -0.5054459571838379, -0.28322693705558777, 1.132907748222351, 0.22130849957466125, -0.5986151695251465, -9.762151718139648, -0.7603941559791565,0
1627739464561,0.3054235279560089, -9.42620849609375, -0.3820788264274597, -0.3908185660839081, 1.225585699081421, 0.06897581368684769, -0.6047871708869934, -9.757025718688965, -0.8190259337425232,0
1627739464578,0.6545644998550415, -9.107010841369629, 0.09102818369865417, -0.46325647830963135, 1.3076109886169434, -0.10040108859539032, -0.5837032794952393, -9.751981735229492, -0.8912233114242554,0
1627739464594,0.6785193085670471, -8.83033275604248, 0.5647340416908264, -0.4270375072956085, 1.3960278034210205, -0.277234822511673, -0.5116299390792847, -9.746635437011719, -0.9886519312858582,0
1627739464610,0.7593666911125183, -8.79200553894043, 0.8156604170799255, -0.3279680013656616, 1.4098762273788452, -0.36778223514556885, -0.4348679780960083, -9.744356155395508, -1.046199083328247,0
1627739464627,0.8120672106742859, -8.997417449951172, 0.35632744431495667, -0.24487745761871338, 1.242629885673523, -0.38695698976516724, -0.34995120763778687, -9.74320125579834, -1.087985634803772,0
1627739464643,0.8503949046134949, -9.22618579864502, 0.12935584783554077, -0.27044376730918884, 0.9070718884468079, -0.30706220865249634, -0.27261388301849365, -9.741548538208008, -1.1242973804473877,0
1627739464659,1.0222704410552979, -9.126173973083496, 0.5695250034332275, -0.3705785572528839, 0.5363602042198181, -0.16857795417308807, -0.21767663955688477, -9.737857818603516, -1.1674071550369263,0
1627739464676,1.385784387588501, -8.596773147583008, 1.0330501794815063, -0.4696480631828308, 0.3158506453037262, -0.036485277116298676, -0.18004104495048523, -9.729493141174316, -1.2412259578704834,0
1627739464692,1.624733328819275, -8.587191581726074, 1.3408690690994263, -0.5090628266334534, 0.2359558641910553, -0.02263684943318367, -0.16423308849334717, -9.721567153930664, -1.3039443492889404,0
1627739464708,1.6103605031967163, -9.492682456970215, 1.5540666580200195, -0.5516733527183533, 0.2210421860218048, -0.08868318796157837, -0.1443975865840912, -9.71274471282959, -1.3703417778015137,0
1627739464725,1.0510162115097046, -10.832353591918945, 2.6050829887390137, -0.5591301918029785, 0.371244341135025, -0.13342425227165222, -0.10520193725824356, -9.699590682983398, -1.4639030694961548,0
1627739464741,0.7497847676277161, -11.523449897766113, 3.102144718170166, -0.4195806682109833, 0.511859118938446, -0.06098633632063866, -0.07701689749956131, -9.691082954406738, -1.520890712738037,0
1627739464757,0.8312310576438904, -11.595314025878906, 2.3733203411102295, -0.18522270023822784, 0.38828855752944946, 0.06578002125024796, -0.06444070488214493, -9.686905860900879, -1.547842264175415,0
1627739464774,0.7976943254470825, -12.028895378112793, 1.9708799123764038, 0.003328948514536023, -0.017576847225427628, 0.2713758945465088, -0.08039337396621704, -9.687105178833008, -1.5458588600158691,0
1627739464790,0.4395703077316284, -12.309765815734863, 2.496088743209839, 0.07789739221334457, -0.174170583486557, 0.4737759530544281, -0.13458068668842316, -9.689624786376953, -1.5261666774749756,0
1627739464806,-0.8276378512382507, -13.615900039672852, 2.69970440864563, 0.10879004001617432, 0.26258745789527893, 0.5153212547302246, -0.2312825322151184, -9.693765640258789, -1.4878013134002686,0
1627739464823,-0.7366096377372742, -12.79604721069336, 2.15533185005188, 0.23555639386177063, 0.5651223063468933, 0.5366265177726746, -0.3014383018016815, -9.697158813476562, -1.4527267217636108,0
1627739464839,-0.5743159651756287, -10.312535285949707, 0.555152177810669, 0.7628618478775024, 0.3073285222053528, 0.5153212547302246, -0.37056612968444824, -9.705948829650879, -1.3759902715682983,0
1627739464855,-0.9276490807533264, -8.949507713317871, -0.3539319634437561, 1.3764536380767822, -0.054861072450876236, 0.40559908747673035, -0.43896394968032837, -9.723864555358887, -1.2206133604049683,0
1627739464872,-1.4007561206817627, -7.414605140686035, -1.6462926864624023, 2.2126855850219727, -0.44048646092414856, 0.29694220423698425, -0.5185319781303406, -9.757991790771484, -0.8653674721717834,0
1627739464888,-1.573230504989624, -6.447430610656738, -2.7637834548950195, 2.9573047161102295, -0.8229160904884338, 0.14567478001117706, -0.5643534064292908, -9.782235145568848, -0.47487872838974,0
1627739464904,-2.442789316177368, -7.376876354217529, -3.937567949295044, 3.5176331996917725, -1.455682635307312, -0.21651481091976166, -0.5723134875297546, -9.793291091918945, 0.006277570966631174,0
1627739464921,-4.340607166290283, -10.255642890930176, -4.453793525695801, 3.2491869926452637, -1.4812489748001099, -0.38269591331481934, -0.5310105085372925, -9.78190803527832, 0.5180943012237549,0
1627739464937,-5.679080963134766, -14.321368217468262, -5.121532917022705, 1.9921759366989136, -1.4162678718566895, -0.22503691911697388, -0.46181806921958923, -9.74378490447998, 1.0399425029754639,0
1627739464954,-5.18681001663208, -16.743196487426758, -2.88655161857605, 0.7383607625961304, -1.2809793949127197, 0.18082848191261292, -0.4481499195098877, -9.723576545715332, 1.219567894935608,0
1627739464970,-0.6695362329483032, -15.098701477050781, -3.118913173675537, -0.008388950489461422, -1.0583393573760986, 0.39068540930747986, -0.48267626762390137, -9.717962265014648, 1.2507411241531372,0
1627739464986,1.5432870388031006, -13.330239295959473, -2.682935953140259, 0.003328948514536023, -1.2032151222229004, 0.17337164282798767, -0.5059394240379333, -9.717823028564453, 1.2425965070724487,0
1627739465003,3.202155828475952, -10.50357437133789, -1.177377700805664, 0.1279647797346115, -1.14569091796875, -0.16431689262390137, -0.47815871238708496, -9.718568801879883, 1.247752070426941,0
1627739465019,3.4836246967315674, -8.29673957824707, 0.13354793190956116, 0.2568616569042206, -0.8484823703765869, -0.4966791272163391, -0.3611927628517151, -9.718047142028809, 1.2904343605041504,0
1627739465035,3.2973761558532715, -7.486469268798828, 0.015570610761642456, -0.017976321280002594, -0.5075980424880981, -0.6053360104560852, -0.2466285526752472, -9.719366073608398, 1.307363748550415,0
1627739465052,2.360743999481201, -7.0762434005737305, 1.042631983757019, -0.4973449110984802, -0.5107938647270203, -0.6458160281181335, -0.12473076581954956, -9.726985931396484, 1.2673981189727783,0
1627739465068,0.9647789597511292, -7.271475315093994, 2.458359956741333, -0.63263338804245, -0.40746331214904785, -0.6415549516677856, -0.009998738765716553, -9.738259315490723, 1.1842108964920044,0
1627739465085,-1.0617958307266235, -8.024852752685547, 2.766178846359253, -0.4323638379573822, -0.20080217719078064, -0.6170539259910583, 0.12369346618652344, -9.748202323913574, 1.0924072265625,0
1627739465101,-2.3284051418304443, -8.649474143981934, 3.3201332092285156, -0.2395511418581009, -0.04420843720436096, -0.560594916343689, 0.20298902690410614, -9.75128173828125, 1.0523375272750854,0
1627739465118,-2.5146536827087402, -8.75906753540039, 3.0218961238861084, 0.1290300488471985, -0.2210421860218048, -0.4498075246810913, 0.26724115014076233, -9.749384880065918, 1.0555510520935059,0
1627739465134,-2.806303024291992, -9.087846755981445, 2.391885280609131, 0.3271690607070923, -0.7856318354606628, -0.38589170575141907, 0.32512420415878296, -9.743386268615723, 1.093996524810791,0
1627739465151,-3.0069243907928467, -9.078265190124512, 1.8810495138168335, 0.492284893989563, -1.326785683631897, -0.19947059452533722, 0.37580934166908264, -9.734757423400879, 1.1529815196990967,0
1627739465167,-2.5146536827087402, -8.902196884155273, 0.9575925469398499, 0.5125249028205872, -1.5004236698150635, 0.0189084280282259, 0.4109540283679962, -9.721901893615723, 1.2457505464553833,0
1627739465183,-2.2421679496765137, -8.706366539001465, 0.005988696590065956, 0.38575854897499084, -1.3235899209976196, 0.1904158592224121, 0.40814268589019775, -9.714938163757324, 1.2998080253601074,0
1627739465200,-1.9079986810684204, -8.220084190368652, 0.025152524933218956, 0.04274369776248932, -0.8197202682495117, 0.375771701335907, 0.37651392817497253, -9.713329315185547, 1.3212100267410278,0
1627739465216,-1.3678182363510132, -7.624209403991699, 0.3138076961040497, -0.3226417005062103, -0.29987168312072754, 0.5131906867027283, 0.314045786857605, -9.718862533569336, 1.2966259717941284,0
1627739465233,-0.9426208138465881, -7.13852596282959, 1.2839765548706055, -0.6592649817466736, 0.09640634804964066, 0.6378265619277954, 0.1919088363647461, -9.734919548034668, 1.1960941553115845,0
1627739465249,-0.5359883308410645, -7.190627574920654, 1.4306995868682861, -0.9213197827339172, 0.2966758906841278, 0.685763418674469, 0.08364412933588028, -9.75007152557373, 1.0794621706008911,0
1627739465265,-0.01976269856095314, -7.852977752685547, 1.710371732711792, -1.211071491241455, 0.28495800495147705, 0.669784426689148, -0.02529856376349926, -9.766392707824707, 0.923608124256134,0
1627739465282,0.5635363459587097, -8.820751190185547, 1.6959987878799438, -1.337837815284729, 0.0612526535987854, 0.5749759674072266, -0.12179692089557648, -9.781435012817383, 0.7381186485290527,0
1627739465298,1.6864168643951416, -10.398772239685059, 2.3733203411102295, -1.1407641172409058, -0.5097286105155945, 0.2990727424621582, -0.2023005187511444, -9.795516014099121, 0.4930278956890106,0
1627739465314,2.1930606365203857, -11.852229118347168, 4.423251152038574, -0.46219122409820557, -0.851678192615509, -0.08761792629957199, -0.2010497897863388, -9.80031681060791, 0.3866606056690216,0
1627739465331,1.0078976154327393, -13.220645904541016, 5.706029891967773, 0.8960197567939758, -0.2838927209377289, -0.36671698093414307, -0.1513262391090393, -9.7992582321167, 0.43333542346954346,0
1627739465347,-0.4641239643096924, -15.112475395202637, 3.784257173538208, 1.6725969314575195, 0.7281076312065125, -0.32091063261032104, -0.09788356721401215, -9.788722038269043, 0.6383171677589417,0
1627739465363,-1.319908618927002, -16.065876007080078, -0.49586406350135803, 1.558613657951355, 0.6865623593330383, -0.13555479049682617, -0.07143572717905045, -9.7692232131958, 0.8906660676002502,0
1627739465380,-0.28266647458076477, -14.769323348999023, -1.3576374053955078, 0.5615270137786865, -0.20186743140220642, 0.3459443151950836, -0.09519559890031815, -9.747981071472168, 1.097238302230835,0
1627739465396,2.51824688911438, -13.048770904541016, -0.43418049812316895, -0.3609911799430847, -1.0711225271224976, 0.7667233943939209, -0.17061679065227509, -9.747566223144531, 1.0917640924453735,0
1627739465412,6.447430610656738, -13.96384334564209, -0.12636148929595947, -0.9500818848609924, -1.6058847904205322, 0.4684496223926544, -0.23863686621189117, -9.757237434387207, 0.987663745880127,0
1627739465429,5.758730411529541, -15.680203437805176, -0.9174683094024658, -1.0992188453674316, -2.00961971282959, -0.01411474123597145, -0.23263557255268097, -9.771644592285156, 0.8348456025123596,0
1627739465445,1.309128999710083, -15.622712135314941, -1.1444398164749146, -1.362338900566101, -0.9155939817428589, -0.5573991537094116, -0.1743747889995575, -9.786057472229004, 0.6624088883399963,0
1627739465461,-3.7483251094818115, -14.945989608764648, -2.067896842956543, -1.8214675188064575, 0.07190528512001038, -0.841824471950531, -0.029384305700659752, -9.803860664367676, 0.3457645773887634,0
1627739465478,-5.913239002227783, -11.852229118347168, -1.0216716527938843, -2.193244457244873, 0.7110633850097656, -0.4359591007232666, 0.050862886011600494, -9.809810638427734, 0.03400448337197304,0
1627739465494,-4.383725643157959, -6.07553243637085, 0.3611183762550354, -2.1506338119506836, 0.8239813446998596, 0.2330264002084732, 0.041353851556777954, -9.805264472961426, -0.30199116468429565,0
1627739465511,-0.5455702543258667, -1.42770516872406, 2.5481903553009033, -1.5743262767791748, 0.1656484752893448, 0.28309378027915955, -0.022211819887161255, -9.793094635009766, -0.5752292275428772,0
1627739465527,-1.1336601972579956, 0.2167908102273941, 1.9846539497375488, -0.7093323469161987, -1.6793879270553589, -0.1771000623703003, -0.04648419842123985, -9.781848907470703, -0.7412176728248596,0
1627739465543,-3.6764607429504395, -2.3571507930755615, -2.649998188018799, -0.6305028200149536, -2.9225504398345947, -0.16644743084907532, -0.08049073070287704, -9.773152351379395, -0.8456535935401917,0
1627739465560,-5.612606048583984, -6.575588703155518, 3.8357601165771484, 0.19294585287570953, -3.6277549266815186, 0.30759483575820923, -0.1610603928565979, -9.768983840942383, -0.8815651535987854,0
1627739465576,-6.3007073402404785, -10.813190460205078, 2.8230714797973633, 1.0100029706954956, -1.8285248279571533, 0.8657929301261902, -0.29968997836112976, -9.775253295898438, -0.7685899138450623,0
1627739465592,-6.429464340209961, -12.529550552368164, 1.3648239374160767, 1.067527174949646, -0.019707374274730682, 1.4261215925216675, -0.49745774269104004, -9.779452323913574, -0.5924074649810791,0
1627739465609,-4.775985240936279, -12.21933650970459, 1.4971741437911987, 0.8246471285820007, 2.166213274002075, 1.366466760635376, -0.7942390441894531, -9.769067764282227, -0.4130900204181671,0
1627739465625,-3.184189796447754, -9.722049713134766, -0.24972863495349884, 0.6467481255531311, 2.9843356609344482, 0.8327697515487671, -0.9487754106521606, -9.758110046386719, -0.33949577808380127,0
1627739465641,-1.7840327024459839, -7.428977966308594, -1.2678070068359375, 0.4954806864261627, 2.6764745712280273, 0.2660495638847351, -1.0148892402648926, -9.752610206604004, -0.30448266863822937,-1
1627739465658,-0.005988696590065956, -5.984504222869873, -0.24972863495349884, 0.5050680637359619, 1.9755312204360962, -0.05992107465863228, -1.0193504095077515, -9.753103256225586, -0.27208149433135986,-1
1627739465674,0.8018864393234253, -6.380357265472412, -0.3820788264274597, 0.4592617452144623, 1.5504910945892334, -0.35286855697631836, -0.9801498055458069, -9.758293151855469, -0.22616037726402283,0
1627739465690,1.4618407487869263, -7.285848140716553, 0.4509488344192505, 0.33356064558029175, 1.3416993618011475, -0.8215845227241516, -0.8442777395248413, -9.772078514099121, -0.1726536601781845,0
1627739465707,1.3037391901016235, -8.706366539001465, 1.1564172506332397, 0.2707100808620453, 1.3917667865753174, -1.1422288417816162, -0.6796514391899109, -9.78542709350586, -0.1399279683828354,0
1627739465723,0.8929146528244019, -10.055620193481445, 0.9150727987289429, 0.29095008969306946, 1.510011076927185, -1.1124014854431152, -0.49768081307411194, -9.79679012298584, -0.10644973814487457,0
1627739465739,0.7875135540962219, -10.746715545654297, -0.23056480288505554, 0.36125749349594116, 1.3406341075897217, -0.81199711561203, -0.34092339873313904, -9.803860664367676, -0.06506606191396713,0
1627739465756,1.0264625549316406, -11.104240417480469, -1.9684845209121704, 0.2930806279182434, 0.8495476841926575, -0.3645864427089691, -0.23795185983181, -9.807095527648926, -0.019572971388697624,0
1627739465772,1.3181120157241821, -10.927574157714844, -2.2475576400756836, 0.016112111508846283, 0.4340948760509491, -0.05139896646142006, -0.18590755760669708, -9.80823802947998, 0.003403664333745837,0
1627739465789,1.7391173839569092, -10.50357437133789, -1.5091514587402344, -0.42597225308418274, 0.46924859285354614, -0.05459475517272949, -0.17597021162509918, -9.808350563049316, -0.03738943859934807,0
1627739465805,2.069094657897949, -10.474828720092773, -0.8462027907371521, -0.6518081426620483, 0.6982802152633667, -0.15579478442668915, -0.1527324914932251, -9.808051109313965, -0.12215360254049301,0
1627739465822,1.91159188747406, -10.18437671661377, -0.4012426435947418, -0.8424903154373169, 0.9422255754470825, -0.24953797459602356, -0.09602531790733337, -9.805684089660645, -0.2746741473674774,0
1627739465838,1.4289029836654663, -9.722049713134766, -0.20241793990135193, -0.9873661398887634, 0.9603350758552551, -0.2239716500043869, -0.04722679406404495, -9.801161766052246, -0.4136355519294739,0
1627739465854,0.7072650194168091, -9.197440147399902, 0.2329602837562561, -1.1098713874816895, 0.7068023681640625, -0.14514215290546417, -0.008852392435073853, -9.793489456176758, -0.5688657164573669,0
1627739465871,0.042519744485616684, -8.79200553894043, 0.7731407284736633, -1.2227894067764282, 0.48842331767082214, -0.06418212503194809, 0.01611434295773506, -9.782238960266113, -0.7373368740081787,0
1627739465887,-0.5024515986442566, -8.415914535522461, 1.861885666847229, -1.2185282707214355, 0.5257075428962708, 0.001864211168140173, 0.026171846315264702, -9.767494201660156, -0.9118552207946777,0
1627739465904,-0.8318299055099487, -8.110491752624512, 3.0452520847320557, -1.035302996635437, 0.9379645586013794, 0.00719052879139781, 0.031737811863422394, -9.751510620117188, -1.0691897869110107,0
1627739465920,-0.8845304250717163, -8.606355667114258, 3.5381217002868652, -0.8765787482261658, 1.2351731061935425, 0.001864211168140173, 0.05074184760451317, -9.731986045837402, -1.2337064743041992,0
1627739465937,-0.7078639268875122, -10.022083282470703, 4.849047660827637, -0.6006754636764526, 1.3949625492095947, 0.08495476841926575, 0.06966139376163483, -9.720010757446289, -1.3238874673843384,0
1627739465953,0.2389489859342575, -10.270015716552734, 4.555601119995117, -0.05206475406885147, 0.9251813888549805, 0.2532663941383362, 0.07015430927276611, -9.715404510498047, -1.3572417497634888,0
1627739465969,1.0989258289337158, -11.065913200378418, 2.6002919673919678, 0.5476785898208618, -0.4010717272758484, 0.3416832685470581, 0.02221737429499626, -9.726115226745605, -1.2799731492996216,0
1627739465986,0.11917505413293839, -13.472769737243652, 1.4312983751296997, 0.8384955525398254, -1.6548868417739868, 0.46631911396980286, -0.055989429354667664, -9.741191864013672, -1.1585298776626587,0
1627739466002,-0.6887000799179077, -14.674102783203125, 0.19044055044651031, 0.8438218832015991, -2.3590261936187744, 0.7337002754211426, -0.18082895874977112, -9.755315780639648, -1.0184458494186401,0
1627739466018,-1.3576374053955078, -13.978216171264648, -1.1588127613067627, 0.6520744562149048, -1.6207984685897827, 0.8860329389572144, -0.33443590998649597, -9.763607025146484, -0.8923301696777344,0
1627739466035,-1.410338044166565, -12.619979858398438, -0.8653666377067566, 0.7181207537651062, -0.4426169991493225, 0.837030827999115, -0.4819401204586029, -9.76619815826416, -0.7907195687294006,0
1627739466051,-1.1426432132720947, -10.326908111572266, -1.0689822435379028, 1.3913673162460327, -0.07403581589460373, 0.5547359585762024, -0.6295381784439087, -9.772221565246582, -0.5860810875892639,0
1627739466067,-1.1570161581039429, -8.039225578308105, -1.0025078058242798, 1.928260087966919, -0.10066740214824677, 0.20852532982826233, -0.6852182745933533, -9.780478477478027, -0.3299069404602051,0
1627739466084,-1.5295130014419556, -7.066661834716797, -1.793015718460083, 2.2616875171661377, -0.019707374274730682, -0.16431689262390137, -0.6910204887390137, -9.78561019897461, -0.021296730265021324,0
1627739466100,-2.7200658321380615, -7.243328094482422, -2.2852864265441895, 2.44384765625, -0.10599371790885925, -0.36778223514556885, -0.6599928140640259, -9.78264045715332, 0.3169904351234436,0
1627739466116,-4.3639631271362305, -8.477598190307617, -2.27630352973938, 2.502437114715576, -0.316915899515152, -0.4167843461036682, -0.6125604510307312, -9.767449378967285, 0.6766135096549988,0
1627739466133,-6.357600212097168, -10.684432983398438, -2.025377035140991, 2.1881844997406006, -0.5374254584312439, -0.2708432376384735, -0.5583863258361816, -9.72781753540039, 1.1374911069869995,0
1627739466149,-6.907362461090088, -14.474080085754395, -2.7212636470794678, 1.3029505014419556, -0.5086633563041687, -0.0023968429304659367, -0.5429470539093018, -9.695008277893066, 1.395759105682373,0
1627739466166,-3.5566868782043457, -15.75625991821289, -3.971104621887207, 0.4294343590736389, -0.5906886458396912, 0.527039110660553, -0.5723497867584229, -9.674664497375488, 1.5196691751480103,0
1627739466182,0.9174683094024658, -13.992588996887207, -4.240595817565918, 0.10559424757957458, -1.5121415853500366, 0.815725564956665, -0.6563324332237244, -9.664548873901367, 1.549791693687439,0
1627739466198,4.320844650268555, -11.356964111328125, -2.2523486614227295, 0.16951005160808563, -1.963813304901123, 0.3363569676876068, -0.7041893005371094, -9.65673828125, 1.5772262811660767,0
1627739466215,5.032900333404541, -9.006999015808105, -0.6898978352546692, 0.1897500604391098, -1.4642046689987183, -0.18881796300411224, -0.6445666551589966, -9.654812812805176, 1.6140754222869873,0
1627739466231,4.425646781921387, -7.486469268798828, 0.30901673436164856, -0.1255679428577423, -0.5384907126426697, -0.5020054578781128, -0.5406867861747742, -9.65915584564209, 1.6261850595474243,0
1627739466248,4.320844650268555, -5.951566219329834, 1.2797844409942627, -0.5868270397186279, 0.19121479988098145, -0.56911700963974, -0.43331554532051086, -9.672430038452148, 1.5787506103515625,0
1627739466264,3.498596429824829, -6.3995208740234375, 1.4025527238845825, -0.8829703330993652, 0.47350963950157166, -0.7555381655693054, -0.28361305594444275, -9.700498580932617, 1.433871865272522,0
1627739466280,0.7599655389785767, -7.986525535583496, 3.7980313301086426, -0.8605997562408447, 0.3829622268676758, -0.8024097681045532, -0.16224971413612366, -9.721173286437988, 1.307131052017212,0
1627739466297,-1.0132874250411987, -8.387168884277344, 4.503499507904053, -0.6177197098731995, 0.6556696891784668, -0.6671212911605835, -0.0661761611700058, -9.734583854675293, 1.2122693061828613,0
1627739466313,-2.6050829887390137, -8.79200553894043, 3.4902122020721436, -0.32690274715423584, 0.5981454849243164, -0.49561384320259094, -2.2014767455402762E-4, -9.7416410446167, 1.1560992002487183,0
1627739466330,-3.2698283195495605, -8.63031005859375, 2.893738031387329, -0.033955276012420654, 0.019707374274730682, -0.388022243976593, 0.06173315271735191, -9.744290351867676, 1.1318542957305908,0
1627739466346,-3.8477373123168945, -8.515926361083984, 2.1697046756744385, 0.2323606014251709, -0.49694544076919556, -0.2431464046239853, 0.09791455417871475, -9.741108894348145, 1.156423807144165,0
1627739466363,-3.284201145172119, -7.805666923522949, 0.9054908752441406, 0.4411522448062897, -0.9283771514892578, 0.04447475075721741, 0.10813110321760178, -9.73448371887207, 1.21006441116333,0
1627739466379,-2.633828639984131, -7.991316318511963, 0.46532171964645386, 0.4209122359752655, -1.0040109157562256, 0.3043990433216095, 0.08986790478229523, -9.726510047912598, 1.2739768028259277,0
1627739466395,-2.0553205013275146, -8.029644012451172, -0.15510722994804382, 0.21105533838272095, -0.864461362361908, 0.5888243913650513, 0.03338555619120598, -9.720771789550781, 1.3197026252746582,0
1627739466412,-0.9989145398139954, -8.144027709960938, -0.05090392008423805, -0.13302478194236755, -0.7408908009529114, 0.815725564956665, -0.0963200181722641, -9.720359802246094, 1.319628357887268,0
1627739466429,-0.01437287125736475, -8.368005752563477, 0.6689373850822449, -0.4707133173942566, -0.700410783290863, 0.8466181755065918, -0.20973290503025055, -9.725016593933105, 1.2712829113006592,0
1627739466445,0.36770597100257874, -8.639892578125, 1.4402815103530884, -0.6880270838737488, -0.7249118089675903, 0.8050729036331177, -0.3177558481693268, -9.732378959655762, 1.1899441480636597,0
1627739466461,0.9078863859176636, -9.039937019348145, 1.8810495138168335, -0.8499471545219421, -0.7291728854179382, 0.7038728594779968, -0.41472840309143066, -9.741132736206055, 1.0837171077728271,0
1627739466478,1.5726317167282104, -9.983756065368652, 2.112812042236328, -0.8989492654800415, -0.6791055202484131, 0.46631911396980286, -0.5080686807632446, -9.753512382507324, 0.9203172922134399,0
1627739466494,2.2463600635528564, -11.318635940551758, 2.8464274406433105, -0.7072018384933472, -0.5757749080657959, 0.13821794092655182, -0.5327787399291992, -9.761924743652344, 0.8106135725975037,0
1627739466510,2.881760597229004, -12.929594993591309, 3.6938278675079346, -0.02010684832930565, -0.19441059231758118, -0.3997401297092438, -0.4996326267719269, -9.767837524414062, 0.7588505148887634,0
1627739466527,1.0755698680877686, -14.454916000366211, 2.1080210208892822, 0.9482176899909973, 0.1315600425004959, -0.7832350134849548, -0.40312430262565613, -9.767066955566406, 0.8234195709228516,0
1627739466543,-3.0398621559143066, -16.3377628326416, -0.32039526104927063, 0.8874976634979248, 0.9230508208274841, -0.6351633667945862, -0.26136118173599243, -9.7523832321167, 1.0289965867996216,0
1627739466560,-1.6588689088821411, -15.408316612243652, -0.3114122152328491, -0.16285216808319092, 1.2692614793777466, -0.016245268285274506, -0.24567486345767975, -9.749646186828613, 1.0583858489990234,0
1627739466576,1.4816035032272339, -15.493955612182617, 0.37070029973983765, -0.951147198677063, 0.767522394657135, 0.2564621865749359, -0.29000523686408997, -9.759166717529297, 0.9542913436889648,0
1627739466592,1.9163827896118164, -14.288430213928223, 1.1091065406799316, -1.358077883720398, -0.1976063847541809, 0.13289162516593933, -0.3143770396709442, -9.774826049804688, 0.7681563496589661,0
1627739466609,1.7492982149124146, -14.202193260192871, -3.090167284011841, -1.005475640296936, -1.044490933418274, -0.030093694105744362, -0.31648844480514526, -9.787850379943848, 0.5778896808624268,0
1627739466625,0.08563835918903351, -12.900849342346191, -3.932776927947998, -0.5548691153526306, -2.2993712425231934, -0.3134537935256958, -0.2671639621257782, -9.797600746154785, 0.4144202470779419,0
1627739466642,-1.3815922737121582, -9.926862716674805, -2.172100067138672, -0.9319724440574646, -1.6154720783233643, -0.4785696268081665, -0.19315020740032196, -9.803435325622559, 0.3024367094039917,0
1627739466658,-2.2421679496765137, -7.281056880950928, -1.9211738109588623, -1.4954968690872192, -0.5821664929389954, -0.40506646037101746, -0.13095103204250336, -9.80858039855957, 0.10352905094623566,0
1627739466674,-3.0781898498535156, -6.489950180053711, -1.6415016651153564, -1.7298548221588135, -0.03142527490854263, -0.15046846866607666, -0.10214530676603317, -9.808243751525879, -0.15505295991897583,0
1627739466690,-2.380506753921509, -4.807725429534912, 2.079874277114868, -1.5178673267364502, 0.5182507038116455, 0.10839056223630905, -0.12367387861013412, -9.79741096496582, -0.4811907708644867,0
1627739466707,0.057491485029459, -2.776958465576172, 6.103679180145264, -0.8851008415222168, 1.6974973678588867, -0.04607264697551727, -0.1292532980442047, -9.78894329071045, -0.629301905632019,0
1627739466723,-0.8845304250717163, -5.250888824462891, 4.2813191413879395, 0.2685795724391937, 2.2791314125061035, -0.38589170575141907, -0.06714270263910294, -9.78935718536377, -0.632523775100708,0
1627739466739,-2.9685966968536377, -9.583710670471191, 2.349365472793579, 1.4382388591766357, 1.182975172996521, -0.5126580595970154, 0.013705288991332054, -9.79887580871582, -0.46688732504844666,0
1627739466756,-5.606617450714111, -11.604296684265137, -1.5187333822250366, 1.390302062034607, -0.1880190074443817, 0.05938844010233879, 0.03667432442307472, -9.807191848754883, -0.2318754345178604,0
1627739466772,-6.300108432769775, -10.880263328552246, 0.11019201576709747, 0.7415565848350525, -0.7920234203338623, 0.4492748975753784, -0.018627475947141647, -9.809769630432129, -0.06492573022842407,0
1627739466788,-6.28094482421875, -9.588501930236816, -1.0641913414001465, 0.17164058983325958, -0.8229160904884338, 0.7944203019142151, -0.17093516886234283, -9.808492660522461, 0.018780672922730446,0
1627739466805,-4.42624568939209, -7.581689357757568, -0.3114122152328491, 0.06404896825551987, -0.9997498393058777, 1.0149297714233398, -0.3339698612689972, -9.804264068603516, 0.03199128806591034,0
1627739466821,-1.4289029836654663, -6.022831916809082, 0.9719654321670532, 0.1237037256360054, -0.47777068614959717, 0.702807605266571, -0.4855782389640808, -9.797842025756836, 0.05140521377325058,0
1627739466837,0.043118614703416824, -7.348130226135254, 1.1186884641647339, 0.2557964026927948, 0.45540016889572144, 0.2287653386592865, -0.5608921647071838, -9.793590545654297, 0.08434492349624634,0
1627739466854,1.0899426937103271, -8.425497055053711, 1.2887674570083618, 0.4390217363834381, 1.401354193687439, -0.10572740435600281, -0.5732131004333496, -9.79232406616211, 0.13391819596290588,0
1627739466870,1.7253434658050537, -9.116592407226562, 0.8342254161834717, 0.4209122359752655, 2.0021626949310303, -0.407196968793869, -0.521068811416626, -9.793941497802734, 0.20809480547904968,0
1627739466886,1.476812481880188, -9.845417022705078, 0.23775124549865723, 0.3207774758338928, 2.1299943923950195, -0.6777738928794861, -0.4351688027381897, -9.797152519226074, 0.2500573694705963,0
1627739466902,0.9084852337837219, -10.222105979919434, -0.46771717071533203, 0.18655426800251007, 1.829590082168579, -0.6596644520759583, -0.3338216543197632, -9.800381660461426, 0.2778328061103821,0
1627739466919,0.4970617890357971, -10.403563499450684, -1.1210839748382568, -0.00519315991550684, 1.3608741760253906, -0.4540685713291168, -0.24963518977165222, -9.80273151397705, 0.28329935669898987,0
1627739466935,0.4587341547012329, -9.960399627685547, -1.9870494604110718, -0.33222904801368713, 0.9827055931091309, -0.2282327115535736, -0.19775956869125366, -9.804679870605469, 0.25549060106277466,0
1627739466951,0.11977392435073853, -9.774150848388672, -2.266721487045288, -0.7103976011276245, 1.115863561630249, -0.2527337670326233, -0.15314705669879913, -9.807781219482422, 0.14171838760375977,0
1627739466968,0.08623722940683365, -9.874162673950195, -0.7749373316764832, -0.980974555015564, 1.5888406038284302, -0.3241064250469208, -0.1111985519528389, -9.809369087219238, -4.344481276348233E-4,0
1627739466984,0.5401803851127625, -9.841224670410156, 0.24254220724105835, -0.959669291973114, 1.6729964017868042, -0.3763043284416199, -0.05512199550867081, -9.808699607849121, -0.1500740647315979,0
1627739467001,0.8318299055099487, -9.67893123626709, 1.047423005104065, -0.855273425579071, 1.5377079248428345, -0.3699127733707428, 0.009133935905992985, -9.805869102478027, -0.28459978103637695,0
1627739467017,1.3049368858337402, -9.4166259765625, 1.4834001064300537, -0.7317028641700745, 1.1467561721801758, -0.36778223514556885, 0.09804611653089523, -9.800057411193848, -0.43052583932876587,0
1627739467034,1.3384736776351929, -9.287869453430176, 1.7576823234558105, -0.7061365842819214, 0.6269075870513916, -0.3262369632720947, 0.1633799821138382, -9.794548988342285, -0.5255845785140991,0
1627739467050,0.8989033102989197, -9.211812973022461, 1.6726429462432861, -0.716789186000824, 0.25193482637405396, -0.1387505680322647, 0.2107710838317871, -9.788113594055176, -0.6201311349868774,0
1627739467066,0.20541228353977203, -9.026163101196289, 1.5684396028518677, -0.7476818561553955, 0.17523585259914398, 0.06684528291225433, 0.22077012062072754, -9.781206130981445, -0.7179223299026489,0
1627739467083,-0.5066437125205994, -9.602874755859375, 1.2887674570083618, -0.7966839671134949, 0.49801069498062134, 0.1531316339969635, 0.20700840651988983, -9.773337364196777, -0.8216712474822998,0
1627739467100,-0.3629150092601776, -10.598794937133789, 0.5270052552223206, -0.7274418473243713, 0.41705065965652466, 0.300137996673584, 0.16975432634353638, -9.761131286621094, -0.9631311893463135,0
1627739467116,0.5928809642791748, -10.98027515411377, 1.8241568803787231, -0.5079975724220276, -0.2167811244726181, 0.5110601782798767, 0.10903625190258026, -9.75323486328125, -1.0481590032577515,0
1627739467132,1.080360770225525, -12.024104118347168, 3.3674440383911133, -0.24594271183013916, -0.5779054760932922, 0.6325002312660217, 0.021443787962198257, -9.748673439025879, -1.0949934720993042,0
1627739467149,0.9989145398139954, -13.525470733642578, 4.60770320892334, 0.022503692656755447, -0.5768402218818665, 0.7294391989707947, -0.12413288652896881, -9.74830150604248, -1.091489315032959,0
1627739467165,-0.052700527012348175, -14.817232131958008, 3.334506034851074, 0.1141163557767868, -0.3211769461631775, 0.7827023863792419, -0.23962359130382538, -9.749384880065918, -1.06218421459198,0
1627739467181,0.153310626745224, -13.082306861877441, 1.7385185956954956, 0.2131858617067337, -0.39894118905067444, 0.9084034562110901, -0.3262898623943329, -9.74924087524414, -1.0401769876480103,0
1627739467197,0.07186435908079147, -10.279597282409668, 0.37070029973983765, 0.5604617595672607, -0.43729066848754883, 0.8604665994644165, -0.510473906993866, -9.7495756149292, -0.9598415493965149,0
1627739467214,0.11977392435073853, -8.954298973083496, -0.4389714300632477, 0.9141292572021484, -0.4181159436702728, 0.7102644443511963, -0.6331599354743958, -9.752776145935059, -0.847690761089325,0
1627739467230,-0.28206759691238403, -8.363214492797852, -1.163603663444519, 1.4595441818237305, -0.5640570521354675, 0.5589970350265503, -0.7609481811523438, -9.761487007141113, -0.6086647510528564,0
1627739467246,-0.26769474148750305, -7.581689357757568, -1.1115020513534546, 1.8781927824020386, -0.5970802307128906, 0.47164541482925415, -0.8403019309043884, -9.76769733428955, -0.3494594395160675,0
1627739467263,-0.477897971868515, -7.333757400512695, -1.36721932888031, 2.012415885925293, -0.3861580193042755, 0.3097253739833832, -0.8778623938560486, -9.76944351196289, -0.15316899120807648,0
1627739467279,-1.7061796188354492, -7.552943706512451, -3.4123592376708984, 1.9740664958953857, 0.047404225915670395, -0.15579478442668915, -0.8942907452583313, -9.766422271728516, 0.23096619546413422,0
1627739467295,-2.772167444229126, -8.196728706359863, -4.150765419006348, 1.9591528177261353, -0.21465060114860535, -0.2793653607368469, -0.8776045441627502, -9.761900901794434, 0.4138086438179016,0
1627739467312,-4.617284774780273, -9.664558410644531, -3.7387430667877197, 1.9239990711212158, -1.1147983074188232, -0.22184112668037415, -0.8416885733604431, -9.749300956726074, 0.6919712424278259,0
1627739467328,-5.410787105560303, -10.985065460205078, -2.6218512058258057, 1.595897912979126, -1.5856447219848633, -0.023702112957835197, -0.8146955370903015, -9.728068351745605, 0.9680416584014893,0
1627739467345,-5.4580979347229, -12.200172424316406, -0.45334431529045105, 1.037699818611145, -1.2873709201812744, 0.021038955077528954, -0.800385057926178, -9.69728946685791, 1.2482326030731201,0
1627739467361,-3.5896246433258057, -13.654227256774902, -1.5750271081924438, 0.6190512776374817, -0.38828855752944946, 0.13821794092655182, -0.8014466166496277, -9.681231498718262, 1.3665803670883179,0
1627739467377,-0.35333308577537537, -12.79125690460205, -2.2571396827697754, 0.6424870491027832, -0.7952192425727844, 0.3374222218990326, -0.8315051198005676, -9.666234016418457, 1.4521222114562988,0
1627739467394,2.925478219985962, -11.165924072265625, -1.5091514587402344, 0.7522091865539551, -1.1936278343200684, -0.1621863692998886, -0.81236332654953, -9.646078109741211, 1.5903971195220947,0
1627739467410,3.8956470489501953, -10.078975677490234, -0.05090392008423805, 0.8044071197509766, -0.9092023968696594, -0.7076013088226318, -0.695989727973938, -9.634732246398926, 1.7098697423934937,0
1627739467426,2.380506753921509, -10.031664848327637, -0.9264513254165649, 0.5434175729751587, -0.22743375599384308, -0.8482160568237305, -0.5438328981399536, -9.626141548156738, 1.810455322265625,0
1627739467443,1.8211625814437866, -8.682412147521973, -1.1725867986679077, -0.2960101068019867, 0.2679137885570526, -0.5755085945129395, -0.4306512475013733, -9.630703926086426, 1.8166505098342896,0
1627739467459,0.8653666377067566, -7.662537097930908, -0.017367219552397728, -0.7934881448745728, 0.14008215069770813, -0.45832961797714233, -0.32923099398612976, -9.65835189819336, 1.6864118576049805,0
1627739467475,0.17726540565490723, -7.400232315063477, 1.7481005191802979, -0.9213197827339172, 0.029294747859239578, -0.388022243976593, -0.2662319242954254, -9.682526588439941, 1.5536754131317139,0
1627739467492,-0.492270827293396, -8.358423233032227, 2.5104615688323975, -0.7945534586906433, 0.07936213165521622, -0.36245590448379517, -0.21051117777824402, -9.70295238494873, 1.4298688173294067,0
1627739467508,-0.39166074991226196, -8.992626190185547, 2.94164776802063, -0.6347638964653015, -0.034621063619852066, -0.3507380187511444, -0.1604943871498108, -9.718392372131348, 1.3278577327728271,0
1627739467524,-0.9174683094024658, -9.22618579864502, 4.025601863861084, -0.2395511418581009, -0.47883594036102295, -0.3006706237792969, -0.10776068270206451, -9.72787094116211, 1.2621554136276245,0
1627739467541,-1.1037167310714722, -9.102219581604004, 3.442901611328125, 0.07896266132593155, -0.7259770631790161, -0.17923058569431305, -0.04817696660757065, -9.729013442993164, 1.2570221424102783,0
1627739467557,-1.2474454641342163, -8.74948501586914, 2.292473077774048, 0.3026680052280426, -0.843156099319458, -0.05459475517272949, -0.0220820102840662, -9.723844528198242, 1.2971066236495972,0
1627739467573,-1.6630610227584839, -8.539880752563477, 0.7306209802627563, 0.34740906953811646, -0.7653918266296387, 0.12756530940532684, -0.01619707979261875, -9.716629981994629, 1.3501695394515991,0
1627739467590,-1.624733328819275, -8.067972183227539, -0.13594341278076172, 0.16524900496006012, -0.6599307656288147, 0.33529168367385864, -0.05636482313275337, -9.710258483886719, 1.3942066431045532,0
1627739467606,-1.342665672302246, -7.772130012512207, -0.12157053500413895, -0.2107890248298645, -0.6396907567977905, 0.5323654413223267, -0.11967642605304718, -9.71210765838623, 1.3772304058074951,0
1627739467623,-0.9653778672218323, -7.662537097930908, 0.6833102703094482, -0.48669227957725525, -0.6428865194320679, 0.6431528329849243, -0.20064722001552582, -9.718942642211914, 1.318337321281433,0
1627739467639,-0.5587453842163086, -7.629000186920166, 1.0995246171951294, -0.7476818561553955, -0.5534043908119202, 0.7486139535903931, -0.29627931118011475, -9.728230476379395, 1.2287672758102417,0
1627739467655,-0.00479095708578825, -8.17756462097168, 1.2749934196472168, -0.9319724440574646, -0.5949496626853943, 0.7592665553092957, -0.3993665874004364, -9.738783836364746, 1.1102787256240845,0
1627739467672,0.6024628281593323, -9.55017375946045, 1.6109592914581299, -1.0363682508468628, -0.7771097421646118, 0.6250433921813965, -0.520844578742981, -9.75269889831543, 0.9217913746833801,0
1627739467688,1.3288917541503906, -11.032376289367676, 2.448777914047241, -0.8659260869026184, -1.0721877813339233, 0.3842938244342804, -0.5757592916488647, -9.761099815368652, 0.7909142971038818,0
1627739467704,2.117603063583374, -12.324138641357422, 4.503499507904053, -0.10426266491413116, -1.1052109003067017, -0.09933582693338394, -0.5789152979850769, -9.76588249206543, 0.7269878387451172,0
1627739467721,1.5390949249267578, -13.482352256774902, 5.966537952423096, 0.9151945114135742, -0.42663803696632385, -0.6426202058792114, -0.5123672485351562, -9.764164924621582, 0.796674370765686,0
1627739467737,-1.2714002132415771, -15.522701263427734, 2.657184600830078, 1.285906195640564, 0.8570045232772827, -0.7374286651611328, -0.36392661929130554, -9.747798919677734, 1.041198492050171,0
1627739467753,-1.2234907150268555, -15.060373306274414, -0.5713216066360474, 0.8310387134552002, 0.9592698216438293, -0.18242637813091278, -0.31794822216033936, -9.7322998046875, 1.1905311346054077,0
1627739467770,1.7451061010360718, -15.193921089172363, -1.7552869319915771, -0.09574055671691895, -0.04420843720436096, 0.4183822572231293, -0.3541141152381897, -9.72536849975586, 1.2360903024673462,0
1627739467786,3.7046074867248535, -16.747987747192383, -3.492607831954956, -0.8669913411140442, -1.304415225982666, 0.3150516748428345, -0.39522355794906616, -9.732722282409668, 1.163633942604065,0
1627739467803,1.7157615423202515, -15.885017395019531, -1.8121795654296875, -1.3090757131576538, -1.733716368675232, -0.045007385313510895, -0.37726908922195435, -9.75713062286377, 0.9445475339889526,0
1627739467819,-1.6492869853973389, -13.992588996887207, -1.7223490476608276, -1.6840485334396362, -0.6918886303901672, -0.4444811940193176, -0.3175780773162842, -9.778681755065918, 0.7159997820854187,0
1627739467835,-3.3842122554779053, -9.893326759338379, -1.0594004392623901, -2.0185413360595703, 0.3446127474308014, -0.4870917499065399, -0.24867507815361023, -9.797454833984375, 0.42912426590919495,0
1627739467852,-3.3410937786102295, -6.95706844329834, -0.9695699214935303, -2.014280080795288, 0.570448637008667, -0.24847272038459778, -0.20543286204338074, -9.807141304016113, 0.11778338998556137,0
1627739467868,-2.997342586517334, -4.869409084320068, -0.05090392008423805, -1.8086843490600586, 0.5619264841079712, 0.04340948909521103, -0.20413245260715485, -9.806225776672363, -0.17996151745319366,0
1627739467884,-2.6098737716674805, -3.3919975757598877, 1.2324737310409546, -1.4848442077636719, 0.6801707744598389, 0.1904158592224121, -0.2511206865310669, -9.793415069580078, -0.5119377970695496,0
1627739467901,-1.0899426937103271, -2.085862874984741, 3.2632405757904053, -0.611328125, 0.8580697774887085, 0.09560739994049072, -0.2908279597759247, -9.783559799194336, -0.6584157943725586,0
1627739467917,-1.2480443716049194, -4.168731689453125, 2.666766405105591, 0.3591269552707672, 0.8463518619537354, -0.26871272921562195, -0.27726882696151733, -9.784130096435547, -0.6557605862617493,0
1627739467933,-1.6109592914581299, -8.57761001586914, 1.539693832397461, 1.1367692947387695, 0.2934800982475281, -0.4231759309768677, -0.22586128115653992, -9.792754173278809, -0.5358002781867981,0
1627739467950,-3.3794214725494385, -13.17752742767334, -0.3539319634437561, 1.323190450668335, -0.6780402064323425, -0.10466214269399643, -0.17933498322963715, -9.804669380187988, -0.269123375415802,0
1627739467966,-5.214956760406494, -14.14530086517334, -1.1821686029434204, 0.6243776082992554, -0.9411603212356567, 0.44288331270217896, -0.22764059901237488, -9.806561470031738, -0.1250590831041336,0
1627739467982,-4.512482643127441, -9.841224670410156, -0.264101505279541, -0.1596563756465912, -0.5267727971076965, 0.5313001871109009, -0.32178106904029846, -9.804215431213379, -0.09957633167505264,0
1627739467999,-3.068608045578003, -7.285848140716553, 0.44136691093444824, -0.24061639606952667, 0.06231791526079178, 0.48549383878707886, -0.4163910746574402, -9.800265312194824, -0.1323692798614502,0
1627739468015,-0.2724856734275818, -5.779690742492676, 1.1989370584487915, 0.09920266270637512, 0.8623307943344116, 0.157392680644989, -0.4942470192909241, -9.796442985534668, -0.14673471450805664,0
1627739468031,1.0324512720108032, -6.304300785064697, 1.1138975620269775, 0.5061333179473877, 1.401354193687439, -0.16857795417308807, -0.481253057718277, -9.797722816467285, -0.09564349800348282,0
1627739468047,1.4384849071502686, -8.167983055114746, 0.41322004795074463, 0.6616618037223816, 1.7390427589416504, -0.5382243990898132, -0.41700443625450134, -9.801129341125488, -0.010042008943855762,0
1627739468064,1.2714002132415771, -9.998128890991211, 0.2239772379398346, 0.508263885974884, 1.8892449140548706, -0.7384939193725586, -0.31483572721481323, -9.804673194885254, 0.07337203621864319,0
1627739468080,0.6018639802932739, -11.23299789428711, -0.973762035369873, 0.08215844631195068, 1.926529049873352, -0.7374286651611328, -0.16078323125839233, -9.807918548583984, 0.12253659218549728,0
1627739468096,0.09522027522325516, -11.175506591796875, -1.6085638999938965, -0.30772799253463745, 1.7656742334365845, -0.5126580595970154, -0.0703238844871521, -9.809325218200684, 0.09117738902568817,0
1627739468113,-0.23954784870147705, -10.817980766296387, -2.508065938949585, -0.6102628707885742, 1.3608741760253906, -0.18455690145492554, -0.019803350791335106, -9.80997371673584, 0.011062932200729847,0
1627739468129,-0.659954309463501, -10.76587963104248, -2.711681604385376, -0.7327681183815002, 0.8090676665306091, 0.061518967151641846, -0.009398230351507664, -9.809492111206055, -0.09943775087594986,0
1627739468146,-0.7174458503723145, -10.107721328735352, -1.248643159866333, -0.7114628553390503, 0.4159854054450989, 0.20319901406764984, -0.030216073617339134, -9.807537078857422, -0.2177649438381195,0
1627739468162,-0.5545532703399658, -9.554965019226074, 0.08623722940683365, -0.6134586334228516, 0.37444013357162476, 0.28735482692718506, -0.0804533064365387, -9.803414344787598, -0.35030612349510193,0
1627739468178,-0.057491485029459, -9.016581535339355, 0.673728346824646, -0.641155481338501, 0.46072646975517273, 0.3597927689552307, -0.1278616487979889, -9.799296379089355, -0.43993282318115234,0
1627739468195,0.5970730185508728, -8.435078620910645, 0.8390163779258728, -0.7476818561553955, 0.46392226219177246, 0.4119906723499298, -0.18044361472129822, -9.793591499328613, -0.5376976728439331,0
1627739468211,1.1755810976028442, -8.267993927001953, 1.298349380493164, -0.8201197385787964, 0.31265485286712646, 0.40133804082870483, -0.23311972618103027, -9.785815238952637, -0.6477592587471008,0
1627739468228,1.754089117050171, -8.387168884277344, 1.781637191772461, -0.792422890663147, 0.0846884474158287, 0.29800745844841003, -0.2901584506034851, -9.773303031921387, -0.7965440154075623,0
1627739468244,1.658270001411438, -8.825541496276855, 2.0750832557678223, -0.6965491771697998, 0.001597895286977291, 0.13821794092655182, -0.31108883023262024, -9.764241218566895, -0.8938294053077698,0
1627739468261,1.199535846710205, -9.488490104675293, 2.0277726650238037, -0.6155891418457031, 0.15393057465553284, 0.005060001742094755, -0.31180045008659363, -9.75612735748291, -0.9781947731971741,0
1627739468277,0.9797507524490356, -9.845417022705078, 2.184077501296997, -0.556999683380127, 0.32650327682495117, -0.015180004760622978, -0.3011503219604492, -9.74853229522705, -1.0542916059494019,0
1627739468293,1.2139087915420532, -10.102931022644043, 1.999026894569397, -0.4717785716056824, 0.4063980281352997, 0.052996858954429626, -0.28794994950294495, -9.739148139953613, -1.1411268711090088,0
1627739468310,1.8445184230804443, -10.098139762878418, 1.8002021312713623, -0.3524690568447113, 0.17097479104995728, 0.07430212944746017, -0.2853999733924866, -9.733314514160156, -1.1904832124710083,0
1627739468326,2.112213134765625, -11.418647766113281, 1.9846539497375488, -0.14687320590019226, -0.28495800495147705, 0.06897581368684769, -0.28694948554039, -9.729989051818848, -1.2170144319534302,0
1627739468342,1.0797619819641113, -14.140509605407715, 1.980461835861206, 0.04274369776248932, -0.4095938205718994, 0.22770008444786072, -0.30403974652290344, -9.729987144470215, -1.2128535509109497,0
1627739468358,-0.27787551283836365, -14.902871131896973, 1.080959677696228, 0.13009530305862427, -0.2551306188106537, 0.5994770526885986, -0.3634799122810364, -9.730859756469727, -1.189268708229065,0
1627739468375,-1.6588689088821411, -12.581652641296387, 0.716248095035553, 0.4390217363834381, -0.03355580195784569, 0.7720497250556946, -0.4702596962451935, -9.730961799621582, -1.150378942489624,0
1627739468391,-2.223004102706909, -11.480330467224121, 0.44615787267684937, 1.1602051258087158, 0.12090741097927094, 0.6420875787734985, -0.6210155487060547, -9.738565444946289, -1.0053925514221191,0
1627739468407,-2.6817381381988525, -10.055620193481445, -0.11258748918771744, 1.7130769491195679, 0.13369056582450867, 0.3789674937725067, -0.705147922039032, -9.752429962158203, -0.7930830121040344,0
1627739468424,-2.8631956577301025, -8.315903663635254, -0.6096493005752563, 2.0635485649108887, 0.10599371790885925, 0.16911058127880096, -0.7551477551460266, -9.767335891723633, -0.5147941708564758,0
1627739468441,-3.1260995864868164, -6.733091354370117, -1.8025976419448853, 2.370344400405884, -0.08255792409181595, 0.05938844010233879, -0.7915376424789429, -9.777684211730957, -0.08052785694599152,0
1627739468457,-3.585432529449463, -6.285136699676514, -3.355466604232788, 2.6302688121795654, -0.5566002130508423, 0.07004107534885406, -0.8156994581222534, -9.771870613098145, 0.28510263562202454,0
1627739468473,-4.230415344238281, -7.248119354248047, -2.9057154655456543, 2.78686261177063, -1.254347801208496, 0.0870852917432785, -0.8375557661056519, -9.749963760375977, 0.6876320242881775,0
1627739468490,-4.259160995483398, -9.783733367919922, -2.9626080989837646, 2.4129550457000732, -1.3054804801940918, 0.013582110404968262, -0.8455269932746887, -9.713106155395508, 1.0847965478897095,0
1627739468506,-4.655612468719482, -15.05079174041748, -2.8679866790771484, 1.3913673162460327, -0.8719182014465332, -0.016245268285274506, -0.8225056529045105, -9.66496753692627, 1.4656140804290771,0
1627739468522,-2.5865180492401123, -16.556949615478516, -3.047647476196289, 0.6158554553985596, -0.721716046333313, 0.42051276564598083, -0.8425616025924683, -9.643305778503418, 1.5914934873580933,0
1627739468539,1.3235019445419312, -15.208294868469238, -4.25017786026001, 0.31864693760871887, -1.3821793794631958, 0.6207823157310486, -0.9006843566894531, -9.627923965454102, 1.651651382446289,0
1627739468555,3.938166618347168, -12.939177513122559, -3.625556707382202, 0.05978791415691376, -1.8349164724349976, 0.16378426551818848, -0.9074171781539917, -9.621427536010742, 1.6854881048202515,0
1627739468571,3.713590621948242, -10.474828720092773, -1.537298321723938, -0.19800585508346558, -1.2650004625320435, -0.08974844962358475, -0.8312835097312927, -9.62894344329834, 1.6818230152130127,0
1627739468588,3.9142119884490967, -8.096118927001953, -0.5719205141067505, -0.4834964871406555, -0.6024065017700195, -0.14727267622947693, -0.7729469537734985, -9.64268970489502, 1.630096197128296,0
1627739468604,3.316540002822876, -6.089905261993408, 1.4690271615982056, -0.8030755519866943, -0.03568632900714874, -0.34967276453971863, -0.7067176103591919, -9.66357707977295, 1.5336072444915771,0
1627739468620,2.628438949584961, -5.76052713394165, 2.7044951915740967, -0.8936229348182678, 0.28921905159950256, -0.5243759751319885, -0.6265245079994202, -9.6876802444458, 1.411542534828186,0
1627739468637,0.7545757293701172, -6.094696044921875, 4.072912216186523, -0.6241112947463989, 0.31798115372657776, -0.6213149428367615, -0.5350310802459717, -9.708186149597168, 1.3042138814926147,0
1627739468653,-1.3815922737121582, -8.077553749084473, 4.205262660980225, -0.2736395597457886, -0.07829686999320984, -0.8173234462738037, -0.3973647952079773, -9.723819732666016, 1.2351348400115967,0
1627739468669,-3.288991928100586, -8.954298973083496, 4.356776714324951, -0.01584579423069954, -0.2306295484304428, -0.727841317653656, -0.28563591837882996, -9.728510856628418, 1.2290655374526978,0
1627739468686,-4.087285041809082, -9.102219581604004, 3.7980313301086426, 0.36125749349594116, -0.5715138912200928, -0.4306327700614929, -0.2074972242116928, -9.7256498336792, 1.2668086290359497,0
1627739468702,-4.144776821136475, -9.135756492614746, 2.567354202270508, 0.6552702188491821, -0.8708529472351074, -0.27297377586364746, -0.1561966836452484, -9.715475082397461, 1.3495333194732666,0
1627739468718,-3.5662686824798584, -8.902196884155273, 0.9815473556518555, 0.8001460433006287, -1.140364646911621, -0.06098633632063866, -0.12268102169036865, -9.699429512023926, 1.4636019468307495,0
1627739468735,-2.5050716400146484, -8.825541496276855, -0.49586406350135803, 0.5807017683982849, -1.165930986404419, 0.2095905989408493, -0.11887594312429428, -9.678147315979004, 1.5985805988311768,0
1627739468751,-1.7978066205978394, -8.902196884155273, -0.6994797587394714, 0.1514005810022354, -0.8101329207420349, 0.49401596188545227, -0.15398438274860382, -9.669410705566406, 1.6476939916610718,0
1627739468768,-1.0043044090270996, -8.601564407348633, -0.41082456707954407, -0.2992058992385864, -0.32863378524780273, 0.6932202577590942, -0.23088814318180084, -9.670199394226074, 1.6340296268463135,0
1627739468784,-0.3539319634437561, -8.272785186767578, 0.6024628281593323, -0.7231807708740234, -0.09747160971164703, 0.7954855561256409, -0.33737149834632874, -9.67949390411377, 1.5587493181228638,0
1627739468800,-0.15211288630962372, -8.201519966125488, 1.374405860900879, -0.9074713587760925, -0.038882117718458176, 0.8231824040412903, -0.4540211260318756, -9.692835807800293, 1.4418383836746216,0
1627739468817,-0.06647452712059021, -8.244039535522461, 1.8337388038635254, -1.1130672693252563, -0.030360009521245956, 0.8317044973373413, -0.6144213676452637, -9.711050987243652, 1.2466241121292114,0
1627739468833,0.5455702543258667, -8.420705795288086, 1.933151125907898, -1.3218588829040527, -0.12090741097927094, 0.6900244355201721, -0.7241031527519226, -9.724504470825195, 1.0704118013381958,0
1627739468849,1.33428156375885, -8.906988143920898, 1.8570947647094727, -1.3559472560882568, -0.3669832944869995, 0.4418180584907532, -0.8027288913726807, -9.737713813781738, 0.8767449855804443,0
1627739468866,1.9750720262527466, -10.508365631103516, 2.43021297454834, -1.106675624847412, -0.7174549698829651, 0.0636494979262352, -0.8307961225509644, -9.753446578979492, 0.6451444029808044,0
1627739468882,2.2469589710235596, -12.024104118347168, 3.5566868782043457, -0.5761744379997253, -0.6684528589248657, -0.25486430525779724, -0.7949690818786621, -9.76284122467041, 0.5395091772079468,0
1627739468899,1.2336714267730713, -13.063143730163574, 4.299883842468262, 0.3165164291858673, -0.038882117718458176, -0.4988096356391907, -0.720917284488678, -9.768403053283691, 0.5428379774093628,0
1627739468915,-1.4953774213790894, -14.745966911315918, 2.661975622177124, 1.1538136005401611, 1.0700571537017822, -0.44767698645591736, -0.6506866812705994, -9.765535354614258, 0.6686034202575684,0
1627739468931,-3.0009357929229736, -18.926076889038086, 2.089456081390381, 0.9311735033988953, 1.9510301351547241, -0.3219758868217468, -0.6049447655677795, -9.752171516418457, 0.8748130798339844,0
1627739468948,-2.7859416007995605, -18.16790771484375, -3.8429465293884277, 0.28668904304504395, 1.5707310438156128, -0.41465383768081665, -0.5814062356948853, -9.748123168945312, 0.9339144229888916,0
1627739468964,-1.5576598644256592, -15.956282615661621, -6.702548980712891, -0.07550055533647537, -0.9219855666160583, -0.522245466709137, -0.5128818154335022, -9.753059387207031, 0.9224416017532349,0
1627739468980,-0.49167197942733765, -14.302205085754395, -3.8621103763580322, -0.6635259985923767, -1.8370469808578491, -0.4359591007232666, -0.4189334213733673, -9.763272285461426, 0.859745979309082,0
1627739468997,1.3438634872436523, -11.442602157592773, 0.2239772379398346, -1.5828484296798706, -0.39787593483924866, -0.2239716500043869, -0.34955212473869324, -9.77963924407959, 0.6874431371688843,0
1627739469013,1.9846539497375488, -8.77344036102295, -0.5904854536056519, -1.811880111694336, 0.2221074402332306, 0.12650004029273987, -0.3281182646751404, -9.795110702514648, 0.42926281690597534,0
1627739469030,0.966575562953949, -6.270763874053955, -1.8546992540359497, -1.597762107849121, -0.01012000348418951, 0.20626164972782135, -0.3493068218231201, -9.803508758544922, 0.07308902591466904,0
1627739469046,-0.859377920627594, -5.002956867218018, -1.6654564142227173, -1.2046798467636108, -0.5129243731498718, 0.18282584846019745, -0.3771778643131256, -9.801628112792969, -0.14815032482147217,0
1627739469062,-0.9216603636741638, -3.9016356468200684, 1.2181007862091064, -0.9404945373535156, -0.42131173610687256, 0.1902827024459839, -0.4151935577392578, -9.796276092529297, -0.31099411845207214,0
1627739469079,-0.11857619136571884, -4.492720127105713, 2.112812042236328, -0.7199850082397461, 0.18482321500778198, 0.02090579643845558, -0.4413507878780365, -9.79098129272461, -0.4218783676624298,0
1627739469095,0.24972863495349884, -6.137216091156006, 3.211138963699341, 0.040613170713186264, 0.25193482637405396, -0.3487406373023987, -0.40318891406059265, -9.790132522583008, -0.4762791097164154,0
1627739469112,-2.1643147468566895, -9.154321670532227, 2.4158401489257812, 0.877910315990448, -0.38828855752944946, -0.7578018307685852, -0.3152836263179779, -9.797816276550293, -0.37355464696884155,0
1627739469128,-7.307407379150391, -12.639143943786621, -1.404948115348816, 0.7095986604690552, -0.7110633850097656, -0.041944749653339386, -0.2569085359573364, -9.80379581451416, -0.23599597811698914,0
1627739469144,-6.8390913009643555, -11.004229545593262, 0.8012875914573669, 0.2834932506084442, -0.5406212210655212, 0.760198712348938, -0.32809722423553467, -9.80323600769043, -0.15821689367294312,0
1627739469161,-5.787476062774658, -9.183067321777344, 0.3659093379974365, 0.04274369776248932, 0.11451582610607147, 1.0339714288711548, -0.4843079447746277, -9.797219276428223, -0.1266571283340454,0
1627739469177,-3.708200693130493, -6.757046222686768, -0.20241793990135193, -0.06697844713926315, 0.4010717272758484, 0.9338366389274597, -0.713101327419281, -9.783101081848145, -0.13626527786254883,0
1627739469194,-0.8258412480354309, -6.085114479064941, 0.19523149728775024, 0.07576686888933182, 0.43729066848754883, 0.26272061467170715, -0.8182266354560852, -9.774742126464844, -0.14507409930229187,0
1627739469210,-0.3862709105014801, -8.020062446594238, 0.6922932863235474, 0.45073962211608887, 0.4149201512336731, -0.04301001504063606, -0.833317756652832, -9.773894309997559, -0.11271151900291443,0
1627739469226,0.6845079660415649, -9.187857627868652, 0.24254220724105835, 0.6328997015953064, 0.5278380513191223, -0.25606271624565125, -0.8103352189064026, -9.776422500610352, -0.03212577477097511,0
1627739469243,1.0240670442581177, -10.389190673828125, 0.2760789096355438, 0.4209122359752655, 0.6705833673477173, -0.49148595333099365, -0.725746214389801, -9.78287124633789, 0.06971518695354462,0
1627739469259,0.7467904090881348, -10.708388328552246, 0.15750271081924438, 0.08535423874855042, 0.9155939817428589, -0.5351617336273193, -0.6410232782363892, -9.78857421875, 0.09514355659484863,0
1627739469275,-0.05629374459385872, -10.222105979919434, -0.841411828994751, -0.17989638447761536, 1.1169288158416748, -0.33063116669654846, -0.5697728991508484, -9.793164253234863, 0.07366205751895905,0
1627739469292,-0.49586406350135803, -9.72684097290039, -1.5564621686935425, -0.26085641980171204, 1.0029456615447998, -0.08562055230140686, -0.537022054195404, -9.79525375366211, 0.02670423500239849,0
1627739469308,-0.7156491875648499, -10.01250171661377, -1.9870494604110718, -0.36418697237968445, 0.6663223505020142, 0.011318424716591835, -0.531040370464325, -9.795477867126465, -0.052111558616161346,0
1627739469325,-0.6300108432769775, -10.046037673950195, -1.5277163982391357, -0.5601954460144043, 0.5725791454315186, 0.05819002166390419, -0.5370197296142578, -9.794366836547852, -0.1344742774963379,0
1627739469341,-0.20421454310417175, -9.988546371459961, -1.0025078058242798, -0.7348986864089966, 0.587492823600769, 0.03368895873427391, -0.5418190956115723, -9.792003631591797, -0.24330849945545197,0
1627739469357,0.10659879446029663, -9.826851844787598, 0.034734439104795456, -0.7988144755363464, 0.6695181131362915, -0.0025300008710473776, -0.5390001535415649, -9.788351058959961, -0.3657819330692291,0
1627739469374,0.21619193255901337, -9.698095321655273, 0.5317962169647217, -0.7519428730010986, 0.797349750995636, -0.01105210930109024, -0.5299744009971619, -9.78365421295166, -0.4851522743701935,0
1627739469390,0.26889246702194214, -9.240558624267578, 0.7827225923538208, -0.7285071015357971, 0.8090676665306091, -0.02809632569551468, -0.5125409364700317, -9.776148796081543, -0.6327231526374817,0
1627739469407,0.18744619190692902, -8.63031005859375, 1.1234794855117798, -0.7444860339164734, 0.7270423769950867, -0.04940159618854523, -0.49525684118270874, -9.769447326660156, -0.7407820224761963,0
1627739469423,0.09222592413425446, -8.148818969726562, 1.440880298614502, -0.7274418473243713, 0.6876276135444641, -0.03555316850543022, -0.477100670337677, -9.761739730834961, -0.8467212915420532,0
1627739469439,-0.01796608977019787, -8.020062446594238, 1.6013773679733276, -0.6763091683387756, 0.6918886303901672, -0.025965798646211624, -0.46090444922447205, -9.753388404846191, -0.9460976719856262,0
1627739469456,-0.08024853467941284, -8.224875450134277, 1.8906314373016357, -0.5910881161689758, 0.7440865635871887, -0.058988966047763824, -0.43586552143096924, -9.7427339553833, -1.060781478881836,0
1627739469472,-0.12755922973155975, -9.350152015686035, 2.4631507396698, -0.5303680896759033, 0.7866970896720886, -0.07070686668157578, -0.4105432629585266, -9.735586166381836, -1.133986234664917,0
1627739469488,0.6036605834960938, -9.926862716674805, 2.2739078998565674, -0.357795387506485, 0.730238139629364, 0.01344895176589489, -0.3904890716075897, -9.729569435119629, -1.1912760734558105,0
1627739469505,1.5594565868377686, -9.836433410644531, 1.454654335975647, -0.16711321473121643, 0.2743053436279297, -0.020639481022953987, -0.37562689185142517, -9.726219177246094, -1.2229808568954468,0
1627739469521,1.994235873222351, -11.151551246643066, 2.022981643676758, 0.03848264366388321, -0.34141695499420166, -0.11331740766763687, -0.3567585349082947, -9.72675609588623, -1.2243561744689941,0
1627739469538,1.6121571063995361, -14.374069213867188, 2.425421953201294, 0.3538006544113159, -0.738760232925415, 0.05819002166390419, -0.35009679198265076, -9.734379768371582, -1.1642128229141235,0
1627739469554,1.21510648727417, -16.276079177856445, 1.3414679765701294, 0.47417542338371277, -0.9454213976860046, 0.5759080648422241, -0.4029299020767212, -9.741456031799316, -1.0852760076522827,0
1627739469570,0.264101505279541, -14.340532302856445, -0.007785305380821228, 0.5807017683982849, -0.6791055202484131, 0.8858997821807861, -0.5232404470443726, -9.74526596069336, -0.996062695980072,0
1627739469587,-1.0977280139923096, -12.362465858459473, -0.9216603636741638, 0.8331692218780518, -0.3499390780925751, 0.8603334426879883, -0.7077078223228455, -9.747365951538086, -0.8509576320648193,0
1627739469603,-1.0929371118545532, -10.260433197021484, -1.5798181295394897, 1.2496873140335083, -0.3872233033180237, 0.6153228282928467, -0.8219431638717651, -9.751142501831055, -0.6897516250610352,0
1627739469620,-1.4947786331176758, -8.687203407287598, -1.7786427736282349, 1.620398998260498, -0.5150549411773682, 0.2946785092353821, -0.8914852738380432, -9.758172035217285, -0.46846723556518555,0
1627739469636,-2.0157952308654785, -7.8296217918396, -1.9678856134414673, 1.838778018951416, -0.4234422445297241, 0.011318424716591835, -0.9200111627578735, -9.764532089233398, -0.2087847888469696,0
1627739469652,-2.7038965225219727, -7.414605140686035, -3.497398614883423, 1.9090853929519653, -0.371244341135025, -0.11970898509025574, -0.9207450151443481, -9.76649284362793, 0.06304526329040527,0
1627739469669,-3.7028110027313232, -7.166672706604004, -3.871093273162842, 1.9410432577133179, -0.7994802594184875, -0.17936374247074127, -0.9083191156387329, -9.76196575164795, 0.33927416801452637,0
1627739469685,-5.385634422302246, -8.158401489257812, -2.3421790599823, 1.7375779151916504, -1.0594046115875244, -0.04514054208993912, -0.8935969471931458, -9.743841171264648, 0.7036721110343933,0
1627739469701,-5.34251594543457, -8.992626190185547, -1.09233820438385, 1.3072115182876587, -0.7962844967842102, 0.09334371984004974, -0.9098256230354309, -9.723306655883789, 0.9304049015045166,0
1627739469717,-4.95025634765625, -12.419957160949707, -1.333682656288147, 0.7362302541732788, -0.16777899861335754, -0.07496792078018188, -0.9193618297576904, -9.706788063049316, 1.0812864303588867,0
1627739469734,-4.047161102294922, -14.445334434509277, -3.014709711074829, 0.4773712158203125, -0.5182507038116455, 0.4534027874469757, -0.94004225730896, -9.695213317871094, 1.164162516593933,0
1627739469750,0.20720888674259186, -12.958341598510742, -3.8189916610717773, 0.2366216629743576, -1.1222550868988037, 0.6462154984474182, -1.0466370582580566, -9.675835609436035, 1.2324247360229492,-1
1627739469766,2.5823259353637695, -12.0049409866333, -2.3799078464508057, 0.1375521570444107, -1.4162678718566895, 0.14660689234733582, -1.0681977272033691, -9.669776916503906, 1.2611433267593384,-1
1627739469783,2.754800319671631, -10.065201759338379, -0.20661002397537231, 0.20146796107292175, -0.8612655401229858, -0.5213133096694946, -0.9961562752723694, -9.672640800476074, 1.2976176738739014,0
1627739469800,2.5996930599212646, -8.391960144042969, 0.4838866591453552, 0.022503692656755447, 0.21571587026119232, -0.7906918525695801, -0.8771715760231018, -9.6810941696167, 1.3202627897262573,0
1627739469816,1.3187109231948853, -7.300220966339111, 0.6401916146278381, -0.3055974841117859, 0.8900277018547058, -0.766190767288208, -0.7146835923194885, -9.69953727722168, 1.2823044061660767,0
1627739469832,0.6354007124900818, -6.585170745849609, 1.047423005104065, -0.6475470662117004, 0.8602002859115601, -0.5723128318786621, -0.6262710094451904, -9.71670913696289, 1.1956042051315308,0
1627739469849,0.3006325662136078, -6.9331135749816895, 2.0607104301452637, -0.7466166019439697, 0.503337025642395, -0.5265064835548401, -0.5552104115486145, -9.733755111694336, 1.087146520614624,0
1627739469865,-1.3486543893814087, -8.224875450134277, 3.3907997608184814, -0.3940143585205078, 0.12623372673988342, -0.7214497327804565, -0.4683195948600769, -9.747314453125, 1.0033395290374756,0
1627739469881,-2.629636526107788, -8.863869667053223, 3.178201198577881, 0.005459475331008434, -0.01438105758279562, -0.6181191802024841, -0.3717896640300751, -9.753687858581543, 0.981552243232727,0
1627739469898,-2.4715349674224854, -8.572818756103516, 2.5344161987304688, 0.30586379766464233, -0.37444013357162476, -0.3795001208782196, -0.28542715311050415, -9.752016067504883, 1.0260717868804932,0
1627739469914,-1.826552391052246, -8.287158012390137, 1.9660890102386475, 0.5263733267784119, -0.7281076312065125, -0.2846916913986206, -0.237271249294281, -9.74535846710205, 1.0990134477615356,0
1627739469930,-1.7451061010360718, -8.267993927001953, 0.9767563939094543, 0.6510091423988342, -0.8293076753616333, -0.1344895213842392, -0.20048758387565613, -9.734960556030273, 1.194341778755188,0
1627739469947,-1.2767900228500366, -8.539880752563477, 0.0011977392714470625, 0.5721796751022339, -0.6769749522209167, 0.13715267181396484, -0.19210238754749298, -9.723241806030273, 1.2875596284866333,0
1627739469963,-0.8515926003456116, -8.558445930480957, -0.5006549954414368, 0.22490376234054565, -0.2817622125148773, 0.3885548710823059, -0.23702654242515564, -9.712039947509766, 1.3624422550201416,0
1627739469980,-0.6030617356300354, -8.420705795288086, -0.29224836826324463, -0.216115340590477, -0.08681897819042206, 0.5749759674072266, -0.31017082929611206, -9.711612701416016, 1.3507393598556519,0
1627739469996,-0.44016918540000916, -8.4488525390625, 0.8156604170799255, -0.649677574634552, -0.09108003228902817, 0.7123949527740479, -0.40593332052230835, -9.717618942260742, 1.2803157567977905,0
1627739470013,-0.16289253532886505, -8.4488525390625, 1.5067559480667114, -0.8755134344100952, -0.06657896935939789, 0.7347655296325684, -0.5124640464782715, -9.726512908935547, 1.1697922945022583,0
1627739470029,0.3006325662136078, -8.463225364685059, 1.8241568803787231, -0.9639303088188171, -0.09747160971164703, 0.6527402400970459, -0.6137670278549194, -9.735705375671387, 1.0370301008224487,0
1627739470045,0.7306209802627563, -9.016581535339355, 1.7720552682876587, -0.905340850353241, -0.2167811244726181, 0.4631233215332031, -0.7148817777633667, -9.746264457702637, 0.8575392365455627,0
1627739470062,1.2037279605865479, -10.141258239746094, 1.8762586116790771, -0.7295723557472229, -0.4191811978816986, 0.26818010210990906, -0.7558289766311646, -9.752363204956055, 0.7458316683769226,0
1627739470078,1.8205636739730835, -12.248082160949707, 2.326009750366211, -0.4568648934364319, -0.5917539000511169, 0.03914843499660492, -0.7642901539802551, -9.757513046264648, 0.6655026078224182,0
1627739470094,2.4895009994506836, -13.449414253234863, 3.0218961238861084, 0.009720529429614544, -0.468183308839798, -0.21118849515914917, -0.7399148941040039, -9.761439323425293, 0.634769082069397,0
1627739470111,1.4283040761947632, -13.706329345703125, 2.993150472640991, 0.7042723298072815, -0.060187388211488724, -0.37204328179359436, -0.6819786429405212, -9.762017250061035, 0.6885038018226624,0
1627739470127,-0.9563947916030884, -14.698057174682617, 1.587004542350769, 1.0153292417526245, 0.5608612298965454, -0.2761695683002472, -0.6142029762268066, -9.751470565795898, 0.8761830925941467,0
1627739470143,-1.2767900228500366, -15.746678352355957, 0.6827113628387451, 0.5125249028205872, 0.9092023968696594, -0.023702112957835197, -0.607930064201355, -9.742165565490723, 0.9781532883644104,0
1627739470160,0.25751394033432007, -16.904891967773438, -2.0864617824554443, -0.225702702999115, 0.5992107391357422, -0.0822916105389595, -0.617709219455719, -9.740742683410645, 0.9861505031585693,0
1627739470176,0.2623049020767212, -14.097391128540039, -2.948235273361206, -0.5687175393104553, -0.5629917979240417, -0.08016107976436615, -0.6027403473854065, -9.748787879943848, 0.9132146835327148,0
