ts,ts,ax,ay,az,gx,gy,gz,mx,my,mz
2021-05-27 15:40:49.662078976+09:00,1622097649662.0789,3.945652173913044,-2.9891304347826084,9.434782608695652,0.8569465648854958,16.050229007633586,9.782748091603052,-0.1064467766116941,0.3718140929535232,-0.3868065967016492
2021-05-27 15:40:49.672027648+09:00,1622097649672.0276,3.6630434782608696,-2.6739130434782608,9.66304347826087,1.437099236641221,16.17236641221374,8.912519083969466,-0.08095952023988,0.3733133433283358,-0.3913043478260869
2021-05-27 15:40:49.682006784+09:00,1622097649682.0068,3.467391304347826,-2.891304347826087,9.48913043478261,4.826412213740458,16.202900763358777,8.50030534351145,-0.0944527736131934,0.3793103448275862,-0.376311844077961
2021-05-27 15:40:49.691986176+09:00,1622097649691.986,3.108695652173913,-2.7717391304347827,9.467391304347826,7.345496183206106,14.905190839694656,9.15679389312977,-0.0944527736131934,0.3718140929535232,-0.3748125937031484
2021-05-27 15:40:49.701965056+09:00,1622097649701.965,2.902173913043478,-2.630434782608696,9.67391304347826,2.3989312977099235,9.775419847328244,3.2941984732824428,-0.0929535232383808,0.3793103448275862,-0.3883058470764617
2021-05-27 15:40:49.711944704+09:00,1622097649711.9446,3.0760869565217392,-2.5,9.83695652173913,-0.1659541984732826,9.31740458015267,3.5690076335877863,-0.0944527736131934,0.368815592203898,-0.3913043478260869
2021-05-27 15:40:49.721923840+09:00,1622097649721.9238,3.2391304347826084,-2.6739130434782608,9.67391304347826,1.0248854961832057,7.256335877862595,2.6224427480916037,-0.0974512743628185,0.3778110944527736,-0.3883058470764617
2021-05-27 15:40:49.731902976+09:00,1622097649731.903,3.217391304347826,-2.652173913043478,9.706521739130434,-0.593435114503817,5.164732824427481,2.1033587786259544,-0.0974512743628185,0.3823088455772114,-0.3943028485757121
2021-05-27 15:40:49.741882368+09:00,1622097649741.8823,3.260869565217391,-2.760869565217391,9.608695652173912,-0.593435114503817,3.699083969465649,1.2331297709923663,-0.0989505247376311,0.3748125937031484,-0.3913043478260869
2021-05-27 15:40:49.751861504+09:00,1622097649751.8616,3.282608695652174,-2.782608695652174,9.608695652173912,-0.1812213740458017,3.531145038167939,1.0346564885496183,-0.0974512743628185,0.3703148425787106,-0.3883058470764617
2021-05-27 15:40:49.761840896+09:00,1622097649761.8408,3.3260869565217392,-2.608695652173913,9.565217391304348,-1.0667175572519083,3.2410687022900766,1.126259541984733,-0.0944527736131934,0.3778110944527736,-0.3928035982008995
2021-05-27 15:40:49.771820032+09:00,1622097649771.82,3.5,-2.510869565217391,9.48913043478261,-0.1964885496183208,3.85175572519084,1.859083969465649,-0.0929535232383808,0.3808095952023987,-0.3853073463268365
2021-05-27 15:40:49.781799424+09:00,1622097649781.7993,3.347826086956521,-2.6956521739130435,9.445652173913045,2.246259541984733,8.523511450381678,2.897251908396947,-0.1004497751124437,0.3808095952023987,-0.3988005997001499
2021-05-27 15:40:49.791778560+09:00,1622097649791.7786,3.3043478260869565,-2.793478260869565,9.48913043478261,0.2462595419847325,4.660916030534351,1.7674809160305345,-0.0974512743628185,0.368815592203898,-0.3913043478260869
2021-05-27 15:40:49.801757696+09:00,1622097649801.7578,3.097826086956521,-2.6739130434782608,9.67391304347826,-0.6850381679389316,3.439541984732825,1.6453435114503818,-0.095952023988006,0.3778110944527736,-0.3883058470764617
2021-05-27 15:40:49.811737088+09:00,1622097649811.737,3.358695652173913,-2.7391304347826084,9.58695652173913,0.6279389312977096,3.2868702290076337,1.4621374045801527,-0.0899550224887556,0.3748125937031484,-0.3928035982008995
2021-05-27 15:40:49.821716224+09:00,1622097649821.7163,3.358695652173913,-2.75,9.347826086956522,3.5592366412213736,8.783053435114503,1.7216793893129771,-0.095952023988006,0.3883058470764617,-0.3883058470764617
2021-05-27 15:40:49.831695616+09:00,1622097649831.6956,3.25,-2.630434782608696,9.532608695652174,1.8951145038167936,4.401374045801527,0.5003053435114505,-0.0929535232383808,0.3808095952023987,-0.3913043478260869
2021-05-27 15:40:49.841674752+09:00,1622097649841.6748,3.260869565217391,-2.608695652173913,9.543478260869565,3.1470229007633588,3.744885496183206,0.6529770992366414,-0.0914542728635682,0.3898050974512743,-0.3898050974512743
2021-05-27 15:40:49.851654144+09:00,1622097649851.654,3.2282608695652173,-2.608695652173913,9.543478260869565,2.29206106870229,3.0425954198473284,0.9277862595419848,-0.0914542728635682,0.3703148425787106,-0.3913043478260869
2021-05-27 15:40:49.861633280+09:00,1622097649861.6333,3.130434782608696,-2.641304347826087,9.728260869565217,-0.1048854961832063,3.134198473282443,0.8819847328244276,-0.0929535232383808,0.3793103448275862,-0.3898050974512743
2021-05-27 15:40:49.871612416+09:00,1622097649871.6123,3.184782608695652,-2.5217391304347827,9.717391304347826,-0.8529770992366414,1.4395419847328246,0.8972519083969467,-0.0944527736131934,0.3718140929535232,-0.383808095952024
2021-05-27 15:40:49.881591808+09:00,1622097649881.5918,3.315217391304348,-2.5869565217391304,9.75,-2.013282442748092,1.1647328244274813,0.943053435114504,-0.095952023988006,0.376311844077961,-0.3958020989505247
2021-05-27 15:40:49.891601664+09:00,1622097649891.6016,3.032608695652174,-2.543478260869565,9.92391304347826,-6.53236641221374,-2.881068702290076,0.973587786259542,-0.0899550224887556,0.376311844077961,-0.3928035982008995
2021-05-27 15:40:49.901550336+09:00,1622097649901.5503,3.2065217391304346,-2.5,9.73913043478261,-5.646870229007633,-1.8734351145038164,0.3018320610687024,-0.0914542728635682,0.376311844077961,-0.3868065967016492
2021-05-27 15:40:49.911529472+09:00,1622097649911.5295,3.315217391304348,-2.608695652173913,9.684782608695652,-5.280458015267175,-1.079541984732824,0.1186259541984734,-0.095952023988006,0.3658170914542728,-0.409295352323838
2021-05-27 15:40:49.921508864+09:00,1622097649921.5088,3.0217391304347827,-2.7065217391304346,9.793478260869565,-9.463664122137404,-2.621526717557252,-0.1409160305343509,-0.0914542728635682,0.3748125937031484,-0.3913043478260869
2021-05-27 15:40:49.931488+09:00,1622097649931.488,3.0543478260869565,-2.5869565217391304,9.73913043478261,-11.55526717557252,-5.552824427480916,-1.1485496183206103,-0.0914542728635682,0.376311844077961,-0.3853073463268365
2021-05-27 15:40:49.941467392+09:00,1622097649941.4673,3.3369565217391304,-2.619565217391304,9.73913043478261,-11.646870229007634,-4.774198473282442,-0.1256488549618319,-0.0929535232383808,0.376311844077961,-0.3958020989505247
2021-05-27 15:40:49.951446272+09:00,1622097649951.4463,3.467391304347826,-2.597826086956521,9.76086956521739,-14.333893129770992,-8.16351145038168,-4.415725190839694,-0.0944527736131934,0.3718140929535232,-0.3883058470764617
2021-05-27 15:40:49.961425664+09:00,1622097649961.4258,3.1739130434782608,-2.510869565217391,9.793478260869565,-15.707938931297711,-8.697862595419847,-4.553129770992366,-0.088455772113943,0.376311844077961,-0.3793103448275862
2021-05-27 15:40:49.971405056+09:00,1622097649971.405,3.1956521739130435,-2.467391304347826,9.92391304347826,-20.639236641221377,-10.82,-3.576030534351145,-0.095952023988006,0.3778110944527736,-0.3808095952023987
2021-05-27 15:40:49.981384448+09:00,1622097649981.3845,2.9782608695652173,-1.5869565217391304,10.608695652173912,-36.02854961832061,-16.66732824427481,-6.217251908396946,-0.0989505247376311,0.376311844077961,-0.3883058470764617
2021-05-27 15:40:49.991363584+09:00,1622097649991.3635,2.934782608695652,-2.1630434782608696,10.391304347826086,-41.7079389312977,-20.270381679389317,-7.942442748091603,-0.088455772113943,0.3748125937031484,-0.3898050974512743
2021-05-27 15:40:50.001342720+09:00,1622097650001.3428,2.8369565217391304,-2.032608695652174,10.358695652173912,-54.73083969465648,-26.1024427480916,-7.713435114503817,-0.0974512743628185,0.3733133433283358,-0.376311844077961
2021-05-27 15:40:50.011322112+09:00,1622097650011.322,2.7065217391304346,-2.25,10.380434782608695,-67.81480916030534,-30.66732824427481,-9.98824427480916,-0.0989505247376311,0.3808095952023987,-0.3718140929535232
2021-05-27 15:40:50.021301248+09:00,1622097650021.3013,2.6956521739130435,-2.282608695652174,10.402173913043478,-84.30335877862595,-34.37725190839694,-6.476793893129771,-0.0839580209895052,0.3853073463268365,-0.368815592203898
2021-05-27 15:40:50.031280640+09:00,1622097650031.2805,2.5217391304347827,-2.217391304347826,10.293478260869565,-95.12778625954198,-43.56809160305343,4.790381679389313,-0.0974512743628185,0.3808095952023987,-0.3583208395802099
2021-05-27 15:40:50.041259776+09:00,1622097650041.2598,2.8043478260869565,-2.0760869565217392,10.293478260869565,-116.33389312977098,-49.552824427480914,14.271297709923664,-0.1124437781109445,0.383808095952024,-0.3463268365817091
2021-05-27 15:40:50.051238912+09:00,1622097650051.239,3.3260869565217392,-1.967391304347826,10.326086956521738,-138.51709923664123,-52.69786259541985,20.48503816793893,-0.1004497751124437,0.3898050974512743,-0.3418290854572713
2021-05-27 15:40:50.061218560+09:00,1622097650061.2185,3.891304347826087,-2.25,10.619565217391305,-162.36442748091605,-53.50702290076336,31.64534351145038,-0.1019490254872563,0.3943028485757121,-0.3313343328335832
2021-05-27 15:40:50.071197440+09:00,1622097650071.1975,4.054347826086956,-2.097826086956521,9.989130434782608,-184.3491603053435,-46.16351145038168,44.79038167938931,-0.0914542728635682,0.3928035982008995,-0.3178410794602698
2021-05-27 15:40:50.081176832+09:00,1622097650081.1768,4.228260869565217,-1.4456521739130437,10.489130434782608,-205.127786259542,-50.57572519083969,58.75984732824427,-0.095952023988006,0.4047976011994003,-0.3118440779610195
2021-05-27 15:40:50.091155968+09:00,1622097650091.156,4.434782608695652,-1.5869565217391304,10.826086956521738,-241.17358778625956,-41.415419847328245,71.53847328244275,-0.08095952023988,0.4032983508245877,-0.2878560719640179
2021-05-27 15:40:50.101135360+09:00,1622097650101.1353,4.902173913043479,-1.4456521739130437,11.51086956521739,-293.570534351145,-30.377251908396943,88.08809160305344,-0.088455772113943,0.4182908545727136,-0.2653673163418291
2021-05-27 15:40:50.111114496+09:00,1622097650111.1145,6.08695652173913,-0.9130434782608696,11.369565217391305,-379.76900763358776,-34.7436641221374,81.15679389312977,-0.0764617691154422,0.416791604197901,-0.2488755622188905
2021-05-27 15:40:50.121124608+09:00,1622097650121.1245,5.304347826086956,-1.2173913043478262,11.315217391304348,-365.76900763358776,-18.88106870229008,132.7140458015267,-0.0689655172413793,0.424287856071964,-0.232383808095952
2021-05-27 15:40:50.131073024+09:00,1622097650131.073,8.271739130434783,-2.358695652173913,11.869565217391305,-412.5170992366412,28.034961832061068,183.2025954198473,-0.0599700149925037,0.424287856071964,-0.2098950524737631
2021-05-27 15:40:50.141052160+09:00,1622097650141.0522,10.33695652173913,-5.423913043478261,11.869565217391305,-464.4407633587786,26.27923664122137,194.16442748091603,-0.0509745127436281,0.4302848575712144,-0.1739130434782608
2021-05-27 15:40:50.151031552+09:00,1622097650151.0315,5.663043478260869,-9.467391304347826,12.108695652173912,-500.6239694656489,16.98152671755725,215.2483969465649,-0.0449775112443778,0.4332833583208396,-0.1514242878560719
2021-05-27 15:40:50.161010688+09:00,1622097650161.0107,3.380434782608696,-16.76086956521739,14.434782608695652,-500.6239694656489,-7.445954198473282,206.9430534351145,-0.0149925037481259,0.4212893553223388,-0.1184407796101949
2021-05-27 15:40:50.170990080+09:00,1622097650170.99,4.0978260869565215,-15.858695652173912,13.66304347826087,-500.6239694656489,27.79068702290076,190.97358778625957,-0.0044977511244377,0.424287856071964,-0.0779610194902548
2021-05-27 15:40:50.180969216+09:00,1622097650180.9692,8.41304347826087,-18.48913043478261,16.77173913043478,-472.2728244274809,55.80595419847328,147.20259541984734,-0.0044977511244377,0.424287856071964,-0.0779610194902548
2021-05-27 15:40:50.190948608+09:00,1622097650190.9485,4.728260869565217,-17.76086956521739,13.293478260869565,-418.9751145038168,0.8593893129770995,103.8285496183206,0.0239880059970015,0.4002998500749625,0.0344827586206896
2021-05-27 15:40:50.200927488+09:00,1622097650200.9275,4.282608695652174,-14.554347826086955,16.065217391304348,-382.2117557251908,-18.82,74.28656488549619,0.0359820089955022,0.3808095952023987,0.0494752623688155
2021-05-27 15:40:50.210906880+09:00,1622097650210.907,6.445652173913043,-10.152173913043478,15.804347826086955,-358.8682442748091,-91.3848854961832,61.40106870229008,0.0509745127436281,0.3658170914542728,0.0854572713643178
2021-05-27 15:40:50.220886272+09:00,1622097650220.8862,5.021739130434782,6.684782608695652,17.608695652173914,-268.5476335877862,-93.01847328244274,109.30946564885495,0.0509745127436281,0.3433283358320839,0.1079460269865067
2021-05-27 15:40:50.230865408+09:00,1622097650230.8655,3.4891304347826084,-18.17391304347826,16.141304347826086,-216.8377099236641,-87.01847328244274,119.20259541984731,0.0674662668665667,0.3223388305847076,0.128935532233883
2021-05-27 15:40:50.240844800+09:00,1622097650240.8447,10.630434782608695,-14.967391304347826,21.57608695652174,23.834045801526717,-105.07954198473284,92.546106870229,0.0824587706146926,0.3178410794602698,0.1334332833583208
2021-05-27 15:40:50.250823936+09:00,1622097650250.824,11.554347826086955,-8.358695652173912,19.043478260869566,130.73480916030533,-71.88870229007634,52.95832061068702,0.0974512743628185,0.335832083958021,0.136431784107946
2021-05-27 15:40:50.260803328+09:00,1622097650260.8032,11.0,-1.1521739130434785,13.728260869565217,177.54396946564884,-42.16351145038168,11.64534351145038,0.1154422788605697,0.3478260869565217,0.1259370314842578
2021-05-27 15:40:50.270782464+09:00,1622097650270.7825,9.51086956521739,3.434782608695652,9.228260869565217,174.73480916030533,-12.972671755725193,-25.270687022900763,0.1094452773613193,0.3538230884557721,0.1229385307346326
2021-05-27 15:40:50.280761600+09:00,1622097650280.7617,7.956521739130435,4.304347826086956,6.869565217391304,168.23099236641218,3.103664122137405,-59.02641221374046,0.1199400299850075,0.3733133433283358,0.1124437781109445
2021-05-27 15:40:50.290740992+09:00,1622097650290.741,7.217391304347826,3.739130434782608,6.3478260869565215,166.91801526717555,17.973893129770993,-87.59129770992365,0.1019490254872563,0.3808095952023987,0.1079460269865067
2021-05-27 15:40:50.300720128+09:00,1622097650300.7202,6.641304347826087,2.402173913043478,6.782608695652174,172.91801526717555,31.424274809160305,-109.05694656488548,0.1004497751124437,0.3823088455772114,0.095952023988006
2021-05-27 15:40:50.310699776+09:00,1622097650310.6997,5.793478260869565,0.6739130434782609,7.467391304347826,188.7958778625954,43.11893129770992,-125.56076335877862,0.095952023988006,0.3988005997001499,0.088455772113943
2021-05-27 15:40:50.320678656+09:00,1622097650320.6787,4.717391304347826,-0.8043478260869565,8.043478260869565,212.3073282442748,51.576946564885496,-135.02641221374046,0.0899550224887556,0.4107946026986506,0.0779610194902548
2021-05-27 15:40:50.330658048+09:00,1622097650330.658,3.260869565217391,-1.5,8.097826086956522,237.7729770992366,52.279236641221374,-139.02641221374046,0.0779610194902548,0.4182908545727136,0.0569715142428785
2021-05-27 15:40:50.340637184+09:00,1622097650340.6372,1.6630434782608696,-1.2826086956521738,7.663043478260869,256.56687022900763,42.95099236641221,-137.3470229007633,0.0614692653673163,0.4392803598200899,0.0434782608695652
2021-05-27 15:40:50.350647040+09:00,1622097650350.647,-0.2608695652173913,-0.9565217391304348,7.173913043478261,266.6126717557252,22.5387786259542,-134.7363358778626,0.0554722638680659,0.4467766116941529,0.0194902548725637
2021-05-27 15:40:50.360595712+09:00,1622097650360.5957,-1.4130434782608696,-0.9456521739130436,7.010869565217391,269.8035114503817,-4.819999999999999,-130.5225954198473,0.04047976011994,0.464767616191904,0.0014992503748125
2021-05-27 15:40:50.370574848+09:00,1622097650370.575,-1.7717391304347825,-1.5652173913043477,7.315217391304348,271.3149618320611,-29.613893129770997,-119.77450381679388,0.0344827586206896,0.4812593703148425,-0.0179910044977511
2021-05-27 15:40:50.380554240+09:00,1622097650380.5542,-1.4021739130434785,-2.532608695652174,7.902173913043478,273.8951145038168,-47.980305343511446,-103.56076335877862,0.0239880059970015,0.4887556221889055,-0.0539730134932533
2021-05-27 15:40:50.390533376+09:00,1622097650390.5334,-0.2282608695652173,-3.858695652173913,8.717391304347826,278.9332824427481,-52.52992366412214,-84.70580152671755,0.032983508245877,0.4932533733133433,-0.08095952023988
2021-05-27 15:40:50.400512768+09:00,1622097650400.5127,0.8695652173913043,-4.945652173913043,9.293478260869565,284.23099236641224,-46.7436641221374,-67.69816793893129,0.0104947526236881,0.5097451274362819,-0.1019490254872563
2021-05-27 15:40:50.410491904+09:00,1622097650410.492,1.2391304347826086,-5.445652173913043,9.67391304347826,286.7195419847328,-40.545190839694655,-57.77450381679389,0.0044977511244377,0.5112443778110944,-0.1274362818590704
2021-05-27 15:40:50.420471296+09:00,1622097650420.4712,1.5217391304347825,-5.945652173913043,9.967391304347826,287.4065648854962,-37.3848854961832,-57.24015267175572,0.0119940029985007,0.512743628185907,-0.1499250374812593
2021-05-27 15:40:50.430450432+09:00,1622097650430.4504,1.858695652173913,-6.402173913043479,10.271739130434783,286.872213740458,-36.43832061068702,-64.64473282442748,0.0059970014992503,0.5082458770614693,-0.1754122938530734
2021-05-27 15:40:50.440429568+09:00,1622097650440.4297,2.282608695652174,-6.858695652173913,10.608695652173912,287.1317557251908,-34.02610687022901,-75.62183206106869,0.0134932533733133,0.5022488755622189,-0.1904047976011993
2021-05-27 15:40:50.450408960+09:00,1622097650450.409,2.467391304347826,-7.021739130434782,10.91304347826087,286.5363358778626,-30.33145038167939,-88.21725190839693,0.0059970014992503,0.4947526236881559,-0.1994002998500749
2021-05-27 15:40:50.460388096+09:00,1622097650460.3882,2.282608695652174,-7.032608695652174,11.25,283.16229007633586,-26.22458015267176,-100.14091603053434,0.0029985007496251,0.4992503748125937,-0.2308845577211394
2021-05-27 15:40:50.470367488+09:00,1622097650470.3674,1.815217391304348,-6.945652173913043,11.641304347826086,277.1928244274809,-23.01847328244275,-109.3928244274809,0.0059970014992503,0.4947526236881559,-0.2368815592203898
2021-05-27 15:40:50.480346624+09:00,1622097650480.3467,1.5,-7.228260869565217,12.391304347826086,268.2615267175573,-20.51465648854962,-114.49206106870228,0.0,0.5007496251874063,-0.2488755622188905
2021-05-27 15:40:50.490326016+09:00,1622097650490.326,1.5,-8.391304347826086,13.728260869565217,262.00198473282444,-15.659694656488549,-114.62946564885496,-0.0134932533733133,0.5007496251874063,-0.2638680659670165
2021-05-27 15:40:50.500305152+09:00,1622097650500.3052,1.4565217391304348,-10.021739130434783,15.054347826086955,260.5363358778626,-9.781832061068702,-109.89664122137404,-0.0044977511244377,0.5007496251874063,-0.272863568215892
2021-05-27 15:40:50.510284544+09:00,1622097650510.2844,1.0217391304347825,-11.195652173913045,15.869565217391305,261.2996946564885,-9.1406106870229,-103.13328244274808,-0.0149925037481259,0.5067466266866567,-0.3013493253373313
2021-05-27 15:40:50.520263680+09:00,1622097650520.2637,1.326086956521739,-12.58695652173913,16.358695652173914,262.32259541984735,-11.568091603053436,-96.0340458015267,-0.0149925037481259,0.5037481259370314,-0.3148425787106447
2021-05-27 15:40:50.530242816+09:00,1622097650530.243,2.543478260869565,-14.467391304347826,16.57608695652174,264.9332824427481,-7.99557251908397,-87.24015267175571,-0.0119940029985007,0.4977511244377811,-0.3388305847076461
2021-05-27 15:40:50.540222208+09:00,1622097650540.2222,4.021739130434782,-17.108695652173914,16.52173913043478,273.253893129771,3.576946564885497,-77.36229007633587,-0.025487256371814,0.505247376311844,-0.3718140929535232
2021-05-27 15:40:50.550201344+09:00,1622097650550.2014,5.130434782608695,-19.05434782608696,15.108695652173912,286.5058015267176,20.17236641221374,-67.68290076335877,-0.0269865067466266,0.5022488755622189,-0.3988005997001499
2021-05-27 15:40:50.560180992+09:00,1622097650560.181,5.25,-18.72826086956522,11.445652173913045,291.5745038167939,28.96625954198473,-60.29358778625954,-0.0194902548725637,0.4902548725637181,-0.4317841079460269
2021-05-27 15:40:50.570159872+09:00,1622097650570.16,4.902173913043479,-16.52173913043478,6.326086956521739,274.6126717557252,26.82885496183206,-54.46152671755725,-0.0269865067466266,0.4887556221889055,-0.4617691154422788
2021-05-27 15:40:50.580169728+09:00,1622097650580.1697,3.0543478260869565,-15.26086956521739,1.4565217391304348,235.83404580152668,3.51587786259542,-50.400458015267176,-0.032983508245877,0.4692653673163418,-0.4902548725637181
2021-05-27 15:40:50.590118400+09:00,1622097650590.1184,1.6956521739130437,-16.217391304347824,-2.597826086956521,195.22335877862596,-35.24748091603053,-41.34702290076336,-0.025487256371814,0.4632683658170914,-0.52023988005997
2021-05-27 15:40:50.600097536+09:00,1622097650600.0977,-0.1956521739130434,-18.380434782608692,-5.5,162.61267175572516,-80.33145038167939,-33.34702290076336,-0.032983508245877,0.4482758620689655,-0.5367316341829085
2021-05-27 15:40:50.610076928+09:00,1622097650610.077,-0.6195652173913043,-19.130434782608692,-8.184782608695652,130.84167938931296,-109.85816793893127,-32.76687022900763,-0.0464767616191904,0.4362818590704647,-0.545727136431784
2021-05-27 15:40:50.620056064+09:00,1622097650620.0562,0.8043478260869565,-18.543478260869566,-10.543478260869565,89.62030534351145,-100.438320610687,-33.102748091603054,-0.0419790104947526,0.4227886056971514,-0.5487256371814093
2021-05-27 15:40:50.630035456+09:00,1622097650630.0354,3.8478260869565215,-16.82608695652174,-12.152173913043478,31.330229007633587,-45.33908396946565,-27.591297709923666,-0.0314842578710644,0.4062968515742128,-0.5712143928035982
2021-05-27 15:40:50.640014592+09:00,1622097650640.0146,5.445652173913043,-15.597826086956522,-11.76086956521739,-35.387328244274805,27.057862595419845,-14.14091603053435,-0.0494752623688155,0.409295352323838,-0.5592203898050975
2021-05-27 15:40:50.649993984+09:00,1622097650649.994,1.1521739130434785,-12.380434782608695,-7.83695652173913,-189.32625954198477,36.17236641221374,4.256030534351145,-0.0614692653673163,0.4077961019490255,-0.5592203898050975
2021-05-27 15:40:50.659973120+09:00,1622097650659.9731,0.5869565217391304,-18.793478260869566,-15.619565217391305,-261.20412213740457,6.721984732824428,-8.095114503816793,-0.0584707646176911,0.409295352323838,-0.5502248875562219
2021-05-27 15:40:50.669952512+09:00,1622097650669.9524,10.51086956521739,4.032608695652174,-1.826086956521739,-265.17358778625953,38.35557251908397,-36.27832061068703,-0.047976011994003,0.4272863568215891,-0.5442278860569715
2021-05-27 15:40:50.679931648+09:00,1622097650679.9316,18.26086956521739,7.619565217391304,21.663043478260867,-309.7232061068702,79.91282442748091,51.49267175572519,-0.0524737631184407,0.4317841079460269,-0.5232383808095952
2021-05-27 15:40:50.689910784+09:00,1622097650689.911,0.4782608695652174,-7.369565217391304,16.58695652173913,-400.71557251908393,89.66854961832061,97.38580152671756,-0.0389805097451274,0.4512743628185907,-0.5172413793103449
2021-05-27 15:40:50.699889920+09:00,1622097650699.89,-7.380434782608695,-18.78260869565217,11.434782608695652,-314.94458015267173,81.54641221374045,73.47740458015268,-0.025487256371814,0.4767616191904048,-0.4977511244377811
2021-05-27 15:40:50.709869312+09:00,1622097650709.8694,-2.315217391304348,-19.34782608695652,20.72826086956521,-268.1048854961832,175.36320610687022,133.78274809160305,-0.0149925037481259,0.4902548725637181,-0.4662668665667166
2021-05-27 15:40:50.719848704+09:00,1622097650719.8486,-6.58695652173913,-19.880434782608692,16.706521739130434,-89.64687022900763,67.8975572519084,74.54610687022901,0.0014992503748125,0.4962518740629685,-0.4587706146926537
2021-05-27 15:40:50.729827840+09:00,1622097650729.828,8.054347826086957,-7.902173913043478,13.75,-69.09725190839694,76.66091603053435,46.65297709923664,0.0179910044977511,0.5217391304347826,-0.4497751124437781
2021-05-27 15:40:50.739807232+09:00,1622097650739.8071,-2.793478260869565,-4.532608695652174,13.358695652173912,-35.265190839694654,34.8593893129771,25.6606106870229,0.0224887556221889,0.5172413793103449,-0.4617691154422788
2021-05-27 15:40:50.749786368+09:00,1622097650749.7864,3.8369565217391295,-2.7717391304347827,10.478260869565217,-42.77664122137404,28.26396946564885,22.088091603053435,0.025487256371814,0.5247376311844077,-0.4542728635682159
2021-05-27 15:40:50.759765504+09:00,1622097650759.7656,7.75,-5.663043478260869,9.08695652173913,-18.02854961832061,36.66091603053435,24.53083969465649,0.0314842578710644,0.5142428785607196,-0.457271364317841
2021-05-27 15:40:50.769744896+09:00,1622097650769.7449,1.8369565217391304,-3.858695652173913,10.228260869565217,-11.70793893129771,27.775419847328244,18.286564885496183,0.0359820089955022,0.5232383808095952,-0.4527736131934032
2021-05-27 15:40:50.779724032+09:00,1622097650779.724,4.021739130434782,-3.4565217391304346,9.847826086956522,-7.03618320610687,20.386106870229007,13.355267175572518,0.0359820089955022,0.5292353823088456,-0.4512743628185907
2021-05-27 15:40:50.789703424+09:00,1622097650789.7034,3.652173913043478,-3.217391304347826,9.641304347826086,5.238625954198473,21.14946564885496,15.767480916030534,0.0494752623688155,0.52023988005997,-0.4527736131934032
2021-05-27 15:40:50.799682560+09:00,1622097650799.6826,3.3260869565217392,-3.010869565217391,9.543478260869565,2.29206106870229,14.294503816793892,11.721679389312976,0.0359820089955022,0.5352323838080959,-0.4527736131934032
2021-05-27 15:40:50.809692416+09:00,1622097650809.6924,3.097826086956521,-3.0217391304347827,9.630434782608695,2.8722137404580157,12.034961832061068,8.362900763358779,0.0509745127436281,0.5307346326836582,-0.457271364317841
2021-05-27 15:40:50.819641088+09:00,1622097650819.641,3.0,-3.0217391304347827,9.576086956521738,3.4981679389312976,11.073129770992365,6.240763358778626,0.0494752623688155,0.5322338830584707,-0.4527736131934032
2021-05-27 15:40:50.829620480+09:00,1622097650829.6204,2.793478260869565,-2.8369565217391304,9.75,4.750076335877862,9.14946564885496,4.194961832061068,0.0509745127436281,0.5232383808095952,-0.4497751124437781
2021-05-27 15:40:50.839599616+09:00,1622097650839.5996,3.0543478260869565,-2.641304347826087,9.771739130434783,6.001984732824427,8.874656488549617,4.3781679389312975,0.0494752623688155,0.5307346326836582,-0.4542728635682159
2021-05-27 15:40:50.849578752+09:00,1622097650849.5789,3.010869565217391,-2.6739130434782608,9.75,4.765343511450381,6.645648854961832,1.3552671755725192,0.0524737631184407,0.5247376311844077,-0.4437781109445277
2021-05-27 15:40:50.859558144+09:00,1622097650859.558,3.0217391304347827,-2.7065217391304346,9.728260869565217,4.215725190839694,5.439541984732824,0.6377099236641223,0.0524737631184407,0.5307346326836582,-0.457271364317841
2021-05-27 15:40:50.869537280+09:00,1622097650869.5374,3.0,-2.5543478260869565,9.782608695652174,2.673740458015267,3.317404580152672,-0.5989312977099235,0.0629685157421289,0.5247376311844077,-0.464767616191904
2021-05-27 15:40:50.879516672+09:00,1622097650879.5166,3.152173913043478,-2.391304347826087,9.695652173913045,1.4829007633587783,1.9586259541984736,-0.3546564885496182,0.0509745127436281,0.5262368815592203,-0.4617691154422788
2021-05-27 15:40:50.889495808+09:00,1622097650889.4958,3.0760869565217392,-2.369565217391304,9.75,-0.761374045801527,0.950992366412214,-0.2172519083969464,0.0599700149925037,0.5292353823088456,-0.4602698650674662
2021-05-27 15:40:50.899475200+09:00,1622097650899.475,3.0760869565217392,-2.402173913043478,9.826086956521738,-2.2422900763358777,1.0883969465648855,-0.6294656488549617,0.0539730134932533,0.527736131934033,-0.4602698650674662
2021-05-27 15:40:50.909454336+09:00,1622097650909.4543,3.293478260869565,-2.4239130434782608,9.619565217391305,-3.784274809160305,-0.6520610687022897,-0.7516030534351144,0.0614692653673163,0.5217391304347826,-0.4557721139430284
2021-05-27 15:40:50.919433472+09:00,1622097650919.4336,3.152173913043478,-2.358695652173913,9.684782608695652,-6.059083969465648,-1.2780152671755722,0.1949618320610688,0.0494752623688155,0.5337331334332833,-0.4632683658170914
2021-05-27 15:40:50.929412864+09:00,1622097650929.4128,3.369565217391304,-2.532608695652174,9.641304347826086,-5.631603053435114,0.7067175572519087,-0.5531297709923663,0.0494752623688155,0.527736131934033,-0.4632683658170914
2021-05-27 15:40:50.939392+09:00,1622097650939.392,3.369565217391304,-2.4130434782608696,9.576086956521738,-6.165954198473282,0.3250381679389316,-0.0035114503816792,0.0674662668665667,0.5307346326836582,-0.4557721139430284
2021-05-27 15:40:50.949371136+09:00,1622097650949.371,3.2391304347826084,-2.619565217391304,9.641304347826086,-6.456030534351145,1.3937404580152677,1.0346564885496183,0.0569715142428785,0.5307346326836582,-0.4632683658170914
2021-05-27 15:40:50.959350528+09:00,1622097650959.3506,2.9891304347826084,-2.7282608695652173,9.695652173913045,-7.585801526717557,-0.7741984732824424,-0.522595419847328,0.0539730134932533,0.527736131934033,-0.4632683658170914
2021-05-27 15:40:50.969329920+09:00,1622097650969.3298,2.869565217391304,-2.75,9.706521739130434,-8.043816793893129,-2.6062595419847323,-0.4615267175572517,0.0539730134932533,0.5307346326836582,-0.457271364317841
2021-05-27 15:40:50.979309056+09:00,1622097650979.309,3.010869565217391,-2.7717391304347827,9.652173913043478,-7.54,-1.3543511450381676,-1.3164885496183203,0.0539730134932533,0.527736131934033,-0.4527736131934032
2021-05-27 15:40:50.989288448+09:00,1622097650989.2883,2.9130434782608696,-2.717391304347826,9.706521739130434,-7.799541984732824,-3.0032061068702287,-3.056946564885496,0.0494752623688155,0.5187406296851574,-0.457271364317841
2021-05-27 15:40:50.999267584+09:00,1622097650999.2676,3.065217391304348,-2.630434782608696,9.76086956521739,-8.272824427480916,-1.4306870229007629,-3.102748091603053,0.0434782608695652,0.5292353823088456,-0.4542728635682159
2021-05-27 15:40:51.009246720+09:00,1622097651009.2468,3.097826086956521,-2.7065217391304346,9.66304347826087,-8.51709923664122,-3.629160305343511,-3.4844274809160303,0.0509745127436281,0.5187406296851574,-0.4557721139430284
2021-05-27 15:40:51.019226112+09:00,1622097651019.226,3.141304347826087,-2.7065217391304346,9.630434782608695,-7.417862595419847,-2.529923664122137,-4.644732824427481,0.0509745127436281,0.5262368815592203,-0.4557721139430284
2021-05-27 15:40:51.029204992+09:00,1622097651029.205,3.2717391304347827,-2.6630434782608696,9.51086956521739,-8.02854961832061,-2.4688549618320605,-4.446259541984733,0.0554722638680659,0.5172413793103449,-0.4602698650674662
2021-05-27 15:40:51.039215104+09:00,1622097651039.215,3.097826086956521,-2.684782608695652,9.576086956521738,-8.01328244274809,-5.262748091603053,-3.835572519083969,0.0554722638680659,0.5172413793103449,-0.4602698650674662
2021-05-27 15:40:51.049163776+09:00,1622097651049.1638,3.097826086956521,-2.782608695652174,9.58695652173913,-7.662137404580152,-3.613893129770992,-3.591297709923664,0.0584707646176911,0.5262368815592203,-0.4452773613193403
2021-05-27 15:40:51.059143168+09:00,1622097651059.143,3.347826086956521,-2.652173913043478,9.58695652173913,-8.150687022900764,-4.346717557251908,-4.32412213740458,0.0464767616191904,0.5337331334332833,-0.4452773613193403
2021-05-27 15:40:51.069122304+09:00,1622097651069.1223,3.2391304347826084,-2.652173913043478,9.641304347826086,-7.677404580152672,-6.590992366412213,-5.66763358778626,0.0509745127436281,0.5217391304347826,-0.4497751124437781
2021-05-27 15:40:51.079101440+09:00,1622097651079.1016,3.0760869565217392,-2.6956521739130435,9.58695652173913,-9.478931297709924,-6.697862595419847,-7.423358778625954,0.0464767616191904,0.5292353823088456,-0.4437781109445277
2021-05-27 15:40:51.089080832+09:00,1622097651089.0808,3.0543478260869565,-2.760869565217391,9.51086956521739,-11.982748091603051,-9.262748091603054,-8.064580152671756,0.0494752623688155,0.5292353823088456,-0.4467766116941529
2021-05-27 15:40:51.099059968+09:00,1622097651099.06,2.641304347826087,-2.6630434782608696,9.782608695652174,-18.53236641221374,-14.13297709923664,-12.293587786259542,0.0509745127436281,0.5352323838080959,-0.4467766116941529
2021-05-27 15:40:51.109039360+09:00,1622097651109.0393,2.7391304347826084,-2.4782608695652173,9.869565217391305,-20.608702290076337,-20.46885496183206,-12.96534351145038,0.0449775112443778,0.5232383808095952,-0.4452773613193403
2021-05-27 15:40:51.119018496+09:00,1622097651119.0186,3.032608695652174,-2.510869565217391,10.01086956521739,-28.349160305343517,-24.926870229007637,-14.461526717557252,0.0374812593703148,0.5232383808095952,-0.4422788605697151
2021-05-27 15:40:51.128997888+09:00,1622097651128.9978,3.065217391304348,-2.2282608695652173,10.228260869565217,-34.1812213740458,-28.743664122137403,-14.858473282442748,0.0464767616191904,0.5322338830584707,-0.4317841079460269
2021-05-27 15:40:51.138977024+09:00,1622097651138.977,3.2391304347826084,-2.217391304347826,10.184782608695652,-41.73847328244275,-31.29328244274809,-15.65236641221374,0.032983508245877,0.5187406296851574,-0.4317841079460269
2021-05-27 15:40:51.148956416+09:00,1622097651148.9563,3.1739130434782608,-2.4347826086956523,10.184782608695652,-49.55526717557252,-33.01847328244275,-14.125648854961833,0.0374812593703148,0.5322338830584707,-0.4287856071964018
2021-05-27 15:40:51.158935552+09:00,1622097651158.9355,3.0869565217391304,-2.2717391304347827,10.369565217391305,-64.70030534351145,-33.49175572519084,-11.087480916030534,0.0374812593703148,0.5217391304347826,-0.4227886056971514
2021-05-27 15:40:51.168914688+09:00,1622097651168.9148,2.619565217391304,-2.2717391304347827,10.369565217391305,-70.92931297709923,-32.728396946564885,2.958320610687023,0.0284857571214392,0.5367316341829085,-0.4107946026986506
2021-05-27 15:40:51.178894080+09:00,1622097651178.894,2.7717391304347827,-2.1739130434782608,10.434782608695652,-93.64687022900765,-44.102442748091605,6.591908396946565,0.04047976011994,0.5367316341829085,-0.409295352323838
2021-05-27 15:40:51.188873216+09:00,1622097651188.8733,2.8369565217391304,-1.9021739130434785,10.445652173913045,-116.04381679389311,-49.58335877862595,9.110992366412214,0.0314842578710644,0.5397301349325337,-0.4047976011994003
2021-05-27 15:40:51.198852352+09:00,1622097651198.8523,3.9130434782608696,-2.358695652173913,10.902173913043478,-136.24229007633588,-47.79709923664122,11.569007633587786,0.0314842578710644,0.5367316341829085,-0.3853073463268365
2021-05-27 15:40:51.208831744+09:00,1622097651208.8318,3.358695652173913,-1.8369565217391304,10.33695652173913,-153.57053435114506,-54.89633587786259,26.34763358778626,0.0269865067466266,0.5382308845577212,-0.3613193403298351
2021-05-27 15:40:51.218811136+09:00,1622097651218.811,3.5217391304347827,-1.0978260869565215,10.282608695652174,-173.87587786259542,-44.30091603053435,35.64534351145038,0.0284857571214392,0.5472263868065966,-0.3463268365817091
2021-05-27 15:40:51.228790272+09:00,1622097651228.7903,4.08695652173913,-2.7717391304347827,9.956521739130434,-195.1430534351145,-61.58335877862595,47.20259541984733,0.0359820089955022,0.5502248875562219,-0.3268365817091454
2021-05-27 15:40:51.238769408+09:00,1622097651238.7695,3.510869565217391,-1.7282608695652173,10.16304347826087,-226.44076335877864,-64.88106870229008,59.43160305343511,0.0419790104947526,0.5517241379310345,-0.3118440779610195
2021-05-27 15:40:51.248748800+09:00,1622097651248.7488,3.1739130434782608,-1.641304347826087,10.293478260869565,-247.9980152671756,-57.99557251908397,72.4545038167939,0.0524737631184407,0.5517241379310345,-0.2818590704647676
2021-05-27 15:40:51.258727936+09:00,1622097651258.728,2.3260869565217392,-0.1304347826086956,10.75,-277.37206106870224,-57.29328244274809,65.52320610687023,0.0509745127436281,0.5592203898050975,-0.2593703148425787
2021-05-27 15:40:51.268737792+09:00,1622097651268.7378,3.032608695652174,0.0760869565217391,11.25,-332.5018320610687,-57.88870229007633,69.04992366412215,0.0584707646176911,0.5592203898050975,-0.2263868065967016
2021-05-27 15:40:51.278686208+09:00,1622097651278.6863,4.771739130434782,-0.0869565217391304,11.282608695652174,-392.0590839694656,-64.63679389312976,52.19496183206107,0.0614692653673163,0.5577211394302848,-0.1964017991004497
2021-05-27 15:40:51.288665856+09:00,1622097651288.6658,7.010869565217391,-2.7282608695652173,10.880434782608695,-459.2499236641221,-43.64442748091603,70.10335877862596,0.0779610194902548,0.5547226386806596,-0.1589205397301349
2021-05-27 15:40:51.298644992+09:00,1622097651298.645,8.293478260869565,-5.576086956521739,11.739130434782608,-500.6239694656489,-28.071908396946565,74.21022900763359,0.073463268365817,0.5442278860569715,-0.1109445277361319
2021-05-27 15:40:51.308624384+09:00,1622097651308.6245,7.445652173913043,-11.66304347826087,12.67391304347826,-500.6239694656489,-22.682595419847328,91.12625954198474,0.095952023988006,0.5232383808095952,-0.0689655172413793
2021-05-27 15:40:51.318603520+09:00,1622097651318.6035,6.478260869565217,-14.891304347826086,11.858695652173912,-500.6239694656489,-10.300916030534353,93.50793893129772,0.0914542728635682,0.5037481259370314,-0.0179910044977511
2021-05-27 15:40:51.328582656+09:00,1622097651328.5828,7.489130434782608,-15.717391304347826,11.728260869565217,-500.6239694656489,10.35557251908397,78.31709923664123,0.1034482758620689,0.4737631184407796,0.0449775112443778
2021-05-27 15:40:51.338562048+09:00,1622097651338.562,7.206521739130435,-19.456521739130437,14.152173913043478,-500.6239694656489,7.51587786259542,67.27893129770993,0.1079460269865067,0.4392803598200899,0.0764617691154422
2021-05-27 15:40:51.348541184+09:00,1622097651348.5413,7.195652173913043,-19.57608695652174,14.684782608695652,-500.6239694656489,-29.93450381679389,39.20259541984733,0.1244377811094452,0.4002998500749625,0.1124437781109445
2021-05-27 15:40:51.358520576+09:00,1622097651358.5205,7.619565217391304,-17.717391304347824,16.358695652173914,-463.8911450381679,-35.64442748091603,48.45450381679389,0.1169415292353823,0.383808095952024,0.1529235382308845
2021-05-27 15:40:51.368499712+09:00,1622097651368.4998,10.728260869565217,-15.92391304347826,20.195652173913043,-363.31099236641217,-70.31618320610687,66.4545038167939,0.1139430284857571,0.3448275862068965,0.1874062968515742
2021-05-27 15:40:51.378479104+09:00,1622097651378.479,12.054347826086955,-1.9456521739130437,21.43478260869565,-258.7613740458015,-57.75129770992366,90.10335877862596,0.1244377811094452,0.3103448275862069,0.2083958020989505
2021-05-27 15:40:51.388458496+09:00,1622097651388.4585,12.478260869565217,-17.934782608695652,17.141304347826086,-250.24229007633585,40.17236641221374,125.87435114503818,0.1379310344827586,0.2998500749625187,0.217391304347826
2021-05-27 15:40:51.398437376+09:00,1622097651398.4375,12.271739130434783,-13.978260869565217,24.467391304347824,70.10885496183207,51.83648854961832,86.34763358778626,0.1349325337331334,0.2833583208395802,0.2218890554722638
2021-05-27 15:40:51.408416768+09:00,1622097651408.4167,8.33695652173913,-12.478260869565217,22.80434782608696,238.81114503816792,31.286870229007636,38.27129770992367,0.1274362818590704,0.2998500749625187,0.2188905547226386
2021-05-27 15:40:51.418395904+09:00,1622097651418.396,5.956521739130435,-0.3369565217391304,14.826086956521738,282.5058015267176,15.53114503816794,11.584274809160304,0.1274362818590704,0.3103448275862069,0.2098950524737631
2021-05-27 15:40:51.428375296+09:00,1622097651428.3752,5.021739130434782,3.945652173913044,10.206521739130434,267.8340458015267,5.286870229007634,4.3781679389312975,0.1274362818590704,0.3418290854572713,0.1949025487256371
2021-05-27 15:40:51.438354432+09:00,1622097651438.3545,5.119565217391304,3.597826086956521,7.902173913043478,253.51343511450384,7.241068702290076,4.958320610687022,0.1244377811094452,0.3703148425787106,0.1799100449775112
2021-05-27 15:40:51.448333568+09:00,1622097651448.3335,5.141304347826087,2.130434782608696,7.239130434782608,252.5058015267176,17.409007633587784,5.904885496183206,0.1154422788605697,0.3868065967016492,0.1664167916041979
2021-05-27 15:40:51.458312960+09:00,1622097651458.313,4.782608695652174,0.5869565217391304,7.739130434782608,265.5592366412214,30.1418320610687,6.744580152671755,0.1184407796101949,0.4002998500749625,0.1544227886056971
2021-05-27 15:40:51.468292352+09:00,1622097651468.2922,3.4782608695652173,-0.2934782608695652,8.184782608695652,284.65847328244274,31.88229007633588,1.0193893129770994,0.1154422788605697,0.4317841079460269,0.1319340329835082
2021-05-27 15:40:51.478271488+09:00,1622097651478.2715,2.608695652173913,-0.5760869565217391,8.25,303.3760305343512,23.546412213740457,-7.026412213740458,0.1064467766116941,0.4527736131934032,0.1154422788605697
2021-05-27 15:40:51.488250624+09:00,1622097651488.2507,2.2391304347826084,-0.6739130434782609,7.880434782608695,318.52106870229005,9.943358778625951,-15.224885496183203,0.1079460269865067,0.47976011994003,0.095952023988006
2021-05-27 15:40:51.498260480+09:00,1622097651498.2605,2.0869565217391304,-0.7391304347826086,7.608695652173913,328.1393893129772,-4.942137404580152,-22.00351145038168,0.1034482758620689,0.4977511244377811,0.0719640179910044
2021-05-27 15:40:51.508209152+09:00,1622097651508.2092,2.0,-1.0434782608695652,7.5,332.84167938931296,-19.705496183206108,-28.217251908396943,0.1019490254872563,0.5427286356821589,0.0374812593703148
2021-05-27 15:40:51.518188544+09:00,1622097651518.1885,1.891304347826087,-2.065217391304348,7.760869565217391,336.10885496183204,-35.24748091603053,-32.537862595419845,0.1034482758620689,0.5652173913043478,0.0209895052473763
2021-05-27 15:40:51.528167424+09:00,1622097651528.1675,2.0,-3.4891304347826084,8.054347826086957,342.1546564885496,-51.18641221374045,-37.13328244274809,0.0944527736131934,0.5877061469265367,-0.0149925037481259
2021-05-27 15:40:51.538147072+09:00,1622097651538.147,2.2717391304347827,-4.652173913043479,8.195652173913043,347.68137404580153,-65.18641221374045,-43.56076335877862,0.0824587706146926,0.6101949025487257,-0.0599700149925037
2021-05-27 15:40:51.548126208+09:00,1622097651548.1262,2.7391304347826084,-5.456521739130435,8.41304347826087,350.7806106870229,-74.11770992366412,-51.9424427480916,0.0824587706146926,0.6371814092953523,-0.1064467766116941
2021-05-27 15:40:51.558105600+09:00,1622097651558.1057,3.8260869565217392,-5.923913043478261,8.51086956521739,349.5897709923664,-76.13297709923664,-59.05694656488549,0.0749625187406296,0.6581709145427286,-0.1424287856071964
2021-05-27 15:40:51.568084736+09:00,1622097651568.0847,5.021739130434782,-6.456521739130435,8.771739130434783,344.9638167938932,-68.14824427480916,-66.9958778625954,0.0719640179910044,0.6701649175412293,-0.1994002998500749
2021-05-27 15:40:51.578063872+09:00,1622097651578.064,6.217391304347826,-6.717391304347826,9.119565217391305,337.43709923664125,-53.171145038167936,-75.74396946564885,0.0584707646176911,0.6821589205397302,-0.2518740629685157
2021-05-27 15:40:51.588043264+09:00,1622097651588.0432,6.641304347826087,-7.413043478260869,9.92391304347826,328.79587786259543,-38.46885496183206,-87.92717557251908,0.0539730134932533,0.6761619190404797,-0.3223388305847076
2021-05-27 15:40:51.598022400+09:00,1622097651598.0225,6.5,-8.380434782608695,10.91304347826087,325.1470229007634,-28.82,-104.78213740458014,0.0419790104947526,0.6656671664167916,-0.3718140929535232
2021-05-27 15:40:51.608001792+09:00,1622097651608.0017,6.130434782608695,-9.17391304347826,11.91304347826087,322.9332824427481,-26.31618320610687,-124.78213740458014,0.0164917541229385,0.6536731634182908,-0.4182908545727136
2021-05-27 15:40:51.617980928+09:00,1622097651617.981,5.934782608695652,-10.0,12.91304347826087,321.9409160305344,-28.14824427480916,-142.70580152671755,0.0014992503748125,0.616191904047976,-0.4677661169415292
2021-05-27 15:40:51.627960320+09:00,1622097651627.9602,6.619565217391304,-11.217391304347826,13.869565217391305,322.7653435114504,-26.346717557251907,-156.9195419847328,-0.0119940029985007,0.5832083958020989,-0.4932533733133433
2021-05-27 15:40:51.637939712+09:00,1622097651637.9397,6.706521739130435,-12.815217391304348,14.641304347826086,323.45236641221373,-15.82763358778626,-171.83557251908397,-0.04047976011994,0.5352323838080959,-0.5292353823088456
2021-05-27 15:40:51.647918592+09:00,1622097651647.9187,5.076086956521739,-15.195652173913045,15.217391304347826,326.82641221374047,-9.705496183206106,-185.91190839694656,-0.0614692653673163,0.5097451274362819,-0.5472263868065966
2021-05-27 15:40:51.657897984+09:00,1622097651657.898,3.6304347826086953,-17.33695652173913,15.282608695652174,332.16992366412217,-8.392519083969466,-189.57603053435116,-0.0689655172413793,0.4692653673163418,-0.56071964017991
2021-05-27 15:40:51.667877120+09:00,1622097651667.8772,2.369565217391304,-19.51086956521739,14.728260869565217,334.6126717557252,-8.590992366412214,-187.27068702290077,-0.08095952023988,0.4227886056971514,-0.5757121439280359
2021-05-27 15:40:51.677856512+09:00,1622097651677.8564,2.282608695652174,-19.880434782608692,13.239130434782608,333.4829007633588,-2.285648854961832,-178.09511450381677,-0.095952023988006,0.383808095952024,-0.5877061469265367
2021-05-27 15:40:51.687835648+09:00,1622097651687.8357,3.25,-19.880434782608692,10.152173913043478,317.7424427480916,15.01206106870229,-161.04167938931295,-0.0944527736131934,0.3553223388305846,-0.5952023988005997
2021-05-27 15:40:51.697815040+09:00,1622097651697.815,4.445652173913043,-19.858695652173918,5.521739130434782,286.65847328244274,42.61511450381679,-136.17145038167936,-0.0974512743628185,0.3178410794602698,-0.6056971514242878
2021-05-27 15:40:51.707794176+09:00,1622097651707.7942,4.423913043478261,-19.869565217391305,0.8804347826086957,240.44473282442743,62.0654961832061,-99.17908396946564,-0.1064467766116941,0.2923538230884557,-0.6206896551724138
2021-05-27 15:40:51.717773312+09:00,1622097651717.7734,3.141304347826087,-19.880434782608692,-4.554347826086956,210.09358778625952,47.62274809160305,-51.9424427480916,-0.1004497751124437,0.2623688155922039,-0.6416791604197901
2021-05-27 15:40:51.727783168+09:00,1622097651727.7832,-1.7608695652173914,-19.880434782608692,-10.08695652173913,172.36839694656487,-15.400152671755723,-19.14854961832061,-0.0944527736131934,0.2503748125937031,-0.6371814092953523
2021-05-27 15:40:51.737731840+09:00,1622097651737.732,-5.413043478260869,-19.880434782608692,-14.17391304347826,125.13175572519084,-108.13297709923664,-0.8279389312977098,-0.0899550224887556,0.2338830584707646,-0.6446776611694153
2021-05-27 15:40:51.747711232+09:00,1622097651747.7112,-2.9782608695652173,-19.880434782608692,-15.576086956521738,66.99435114503817,-152.45358778625953,8.286564885496183,-0.0944527736131934,0.224887556221889,-0.6446776611694153
2021-05-27 15:40:51.757690368+09:00,1622097651757.6904,3.4565217391304346,-19.89130434782609,-14.891304347826086,4.704274809160305,-110.82,25.32473282442748,-0.1004497751124437,0.2143928035982009,-0.6476761619190404
2021-05-27 15:40:51.767669760+09:00,1622097651767.6697,7.75,-19.880434782608692,-12.67391304347826,-62.89877862595419,-14.774198473282445,42.48503816793893,-0.1079460269865067,0.2128935532233883,-0.6296851574212894
2021-05-27 15:40:51.777648896+09:00,1622097651777.649,6.206521739130435,-18.98913043478261,-9.391304347826086,-119.73847328244274,53.7448854961832,47.9812213740458,-0.1079460269865067,0.217391304347826,-0.6296851574212894
2021-05-27 15:40:51.787628288+09:00,1622097651787.6282,4.228260869565217,-18.28260869565217,-5.413043478260869,-165.17358778625956,60.47770992366412,31.828549618320608,-0.1094452773613193,0.2203898050974512,-0.6266866566716641
2021-05-27 15:40:51.797607424+09:00,1622097651797.6074,5.815217391304348,-17.445652173913043,-1.5543478260869563,-195.35679389312975,43.62274809160305,5.7216793893129765,-0.1049475262368815,0.239880059970015,-0.6296851574212894
2021-05-27 15:40:51.807586816+09:00,1622097651807.587,10.42391304347826,-12.978260869565217,3.282608695652174,-189.31099236641225,32.92045801526717,-31.13328244274809,-0.0974512743628185,0.2473763118440779,-0.631184407796102
2021-05-27 15:40:51.817565952+09:00,1622097651817.566,13.619565217391305,8.891304347826086,24.27173913043478,-392.1812213740458,103.04259541984732,-52.99587786259542,-0.1004497751124437,0.2638680659670165,-0.6206896551724138
2021-05-27 15:40:51.827545088+09:00,1622097651827.5452,17.76086956521739,23.83695652173913,21.815217391304348,-60.04381679389313,2.18763358778626,-127.866106870229,-0.1034482758620689,0.2773613193403298,-0.616191904047976
2021-05-27 15:40:51.837524480+09:00,1622097651837.5244,12.543478260869565,23.97826086956521,12.967391304347826,-433.54,106.17236641221372,55.17206106870229,-0.1064467766116941,0.2848575712143928,-0.6101949025487257
2021-05-27 15:40:51.847503616+09:00,1622097651847.5037,-19.80434782608696,-4.706521739130435,-12.42391304347826,-433.0361832061069,77.11893129770992,107.8285496183206,-0.1154422788605697,0.2893553223388306,-0.5892053973013494
2021-05-27 15:40:51.857483008+09:00,1622097651857.483,-9.076086956521738,-15.08695652173913,20.315217391304348,-421.8453435114503,65.01206106870228,144.546106870229,-0.0974512743628185,0.3193403298350824,-0.5787106446776612
2021-05-27 15:40:51.867462144+09:00,1622097651867.4622,3.5869565217391304,-19.869565217391305,24.467391304347824,-309.54,191.53114503816795,163.04992366412213,-0.0929535232383808,0.3493253373313343,-0.56071964017991
2021-05-27 15:40:51.877441280+09:00,1622097651877.4414,6.304347826086956,-19.880434782608692,22.84782608695652,-49.54,-80.1024427480916,-32.49206106870229,-0.0794602698650674,0.3703148425787106,-0.5502248875562219
2021-05-27 15:40:51.887420928+09:00,1622097651887.421,9.369565217391305,12.945652173913045,3.652173913043478,57.36076335877863,52.99679389312977,0.1796946564885497,-0.0584707646176911,0.3928035982008995,-0.5502248875562219
2021-05-27 15:40:51.897399808+09:00,1622097651897.4,-6.326086956521739,-12.858695652173912,12.793478260869565,-41.54,-13.598625954198472,-9.423358778625952,-0.0599700149925037,0.3928035982008995,-0.5442278860569715
2021-05-27 15:40:51.907379200+09:00,1622097651907.3792,6.445652173913043,-1.184782608695652,11.304347826086955,-59.55526717557252,-7.980305343511451,-11.33175572519084,-0.0599700149925037,0.3928035982008995,-0.5442278860569715
2021-05-27 15:40:51.917358336+09:00,1622097651917.3584,2.2717391304347827,-2.967391304347826,10.032608695652174,-20.92931297709924,-8.789465648854963,-8.66,-0.0584707646176911,0.4002998500749625,-0.5442278860569715
2021-05-27 15:40:51.927337728+09:00,1622097651927.3376,4.434782608695652,-3.4239130434782608,9.456521739130434,-23.75374045801527,-13.537557251908398,-12.217251908396946,-0.0629685157421289,0.4032983508245877,-0.5397301349325337
2021-05-27 15:40:51.937316864+09:00,1622097651937.317,5.423913043478261,-3.043478260869565,9.358695652173912,-16.471297709923665,-7.537557251908396,-6.6294656488549615,-0.0674662668665667,0.4137931034482758,-0.5397301349325337
2021-05-27 15:40:51.947296+09:00,1622097651947.296,3.6739130434782608,-2.7391304347826084,9.641304347826086,-17.90641221374046,-9.125343511450382,-6.537862595419847,-0.0614692653673163,0.4047976011994003,-0.5382308845577212
2021-05-27 15:40:51.957305856+09:00,1622097651957.306,3.9565217391304346,-2.565217391304348,9.608695652173912,-16.2575572519084,-9.415419847328245,-6.8432061068702295,-0.0644677661169415,0.4002998500749625,-0.5352323838080959
2021-05-27 15:40:51.967254528+09:00,1622097651967.2546,3.695652173913044,-2.7065217391304346,9.402173913043478,-12.471297709923665,-9.873435114503817,-7.438625954198473,-0.0659670164917541,0.4032983508245877,-0.5337331334332833
2021-05-27 15:40:51.977233920+09:00,1622097651977.234,4.293478260869565,-3.2282608695652173,9.304347826086955,-10.990381679389312,-9.888702290076337,-7.362290076335878,-0.0749625187406296,0.4017991004497751,-0.5352323838080959
2021-05-27 15:40:51.987213056+09:00,1622097651987.2131,3.782608695652174,-2.6956521739130435,9.315217391304348,-11.601068702290076,-16.82,-7.866106870229007,-0.0719640179910044,0.4017991004497751,-0.5322338830584707
2021-05-27 15:40:51.997192448+09:00,1622097651997.1924,4.021739130434782,-2.858695652173913,9.358695652173912,-9.448396946564886,-8.377251908396946,-5.530229007633588,-0.0704647676161919,0.4017991004497751,-0.5292353823088456
2021-05-27 15:40:52.007171584+09:00,1622097652007.1716,3.815217391304348,-2.75,9.51086956521739,-11.662137404580152,-9.568091603053436,-5.896641221374046,-0.0689655172413793,0.3988005997001499,-0.5337331334332833
2021-05-27 15:40:52.017150976+09:00,1622097652017.151,3.782608695652174,-2.8043478260869565,9.48913043478261,-9.616335877862594,-9.720763358778626,-6.110381679389313,-0.0719640179910044,0.4047976011994003,-0.5307346326836582
2021-05-27 15:40:52.027129856+09:00,1622097652027.13,3.804347826086957,-2.75,9.58695652173913,-11.158320610687024,-10.82,-6.49206106870229,-0.073463268365817,0.4017991004497751,-0.5307346326836582
2021-05-27 15:40:52.037109248+09:00,1622097652037.1094,3.804347826086957,-2.7282608695652173,9.608695652173912,-16.486564885496183,-13.461221374045802,-8.095114503816793,-0.0674662668665667,0.3973013493253373,-0.5217391304347826
2021-05-27 15:40:52.047088640+09:00,1622097652047.0886,3.75,-2.5217391304347827,9.478260869565217,-18.21175572519084,-12.51465648854962,-7.98824427480916,-0.0749625187406296,0.4017991004497751,-0.5187406296851574
2021-05-27 15:40:52.057068032+09:00,1622097652057.068,3.9565217391304346,-2.7717391304347827,9.358695652173912,-17.769007633587787,-12.377251908396946,-8.751603053435115,-0.073463268365817,0.4002998500749625,-0.5217391304347826
2021-05-27 15:40:52.067047168+09:00,1622097652067.047,4.010869565217392,-2.7282608695652173,9.23913043478261,-19.631603053435114,-14.575725190839696,-7.545496183206107,-0.073463268365817,0.4062968515742128,-0.5232383808095952
2021-05-27 15:40:52.077026304+09:00,1622097652077.0264,4.369565217391305,-2.902173913043478,9.293478260869565,-19.204122137404585,-12.102442748091605,-6.812671755725191,-0.0749625187406296,0.4077961019490255,-0.5157421289355322
2021-05-27 15:40:52.087005696+09:00,1622097652087.0056,4.489130434782608,-3.0760869565217392,9.358695652173912,-20.486564885496183,-13.18641221374046,-5.728702290076336,-0.0749625187406296,0.4017991004497751,-0.5172413793103449
2021-05-27 15:40:52.096984832+09:00,1622097652096.9849,4.33695652173913,-3.010869565217391,9.195652173913045,-18.92931297709924,-11.766564885496184,-5.148549618320611,-0.0719640179910044,0.409295352323838,-0.5142428785607196
2021-05-27 15:40:52.106964224+09:00,1622097652106.964,4.271739130434782,-2.9456521739130435,9.228260869565217,-20.150687022900765,-12.331450381679389,-4.293587786259542,-0.0764617691154422,0.4047976011994003,-0.5142428785607196
2021-05-27 15:40:52.116943360+09:00,1622097652116.9434,4.391304347826087,-2.9130434782608696,9.08695652173913,-19.921679389312978,-11.15587786259542,-3.438625954198473,-0.0779610194902548,0.4077961019490255,-0.5112443778110944
2021-05-27 15:40:52.126922496+09:00,1622097652126.9226,4.543478260869565,-2.8260869565217392,9.097826086956522,-19.478931297709924,-10.529923664122135,-1.98824427480916,-0.0869565217391304,0.4137931034482758,-0.5157421289355322
2021-05-27 15:40:52.136902144+09:00,1622097652136.902,4.478260869565217,-2.880434782608696,9.119565217391305,-20.501832061068704,-8.66732824427481,-0.8432061068702288,-0.0779610194902548,0.4032983508245877,-0.5082458770614693
2021-05-27 15:40:52.146881024+09:00,1622097652146.881,4.369565217391305,-3.032608695652174,9.097826086956522,-22.135419847328244,-9.537557251908398,-0.5531297709923663,-0.0794602698650674,0.409295352323838,-0.5082458770614693
2021-05-27 15:40:52.156860416+09:00,1622097652156.8604,4.456521739130435,-3.0543478260869565,9.130434782608695,-21.295725190839697,-7.293282442748091,-0.3088549618320609,-0.0779610194902548,0.4077961019490255,-0.5007496251874063
2021-05-27 15:40:52.166839552+09:00,1622097652166.8396,4.206521739130435,-2.967391304347826,9.16304347826087,-22.486564885496183,-4.728396946564885,2.729312977099237,-0.08095952023988,0.4122938530734633,-0.5037481259370314
2021-05-27 15:40:52.176818944+09:00,1622097652176.8188,4.206521739130435,-3.130434782608696,9.021739130434783,-24.608702290076337,-9.064274809160306,-0.4309923664122135,-0.0824587706146926,0.4107946026986506,-0.5022488755622189
2021-05-27 15:40:52.186828544+09:00,1622097652186.8286,4.206521739130435,-3.152173913043478,9.01086956521739,-23.631603053435114,-6.071908396946564,-0.0340458015267174,-0.08095952023988,0.3988005997001499,-0.5007496251874063
2021-05-27 15:40:52.196777216+09:00,1622097652196.777,4.130434782608695,-3.0543478260869565,9.152173913043478,-25.127786259541985,-4.14824427480916,1.7522137404580154,-0.0839580209895052,0.4152923538230884,-0.4962518740629685
2021-05-27 15:40:52.206756608+09:00,1622097652206.7566,4.0978260869565215,-3.184782608695652,9.097826086956522,-27.70793893129771,-8.4993893129771,1.6148091603053436,-0.0839580209895052,0.4122938530734633,-0.4932533733133433
2021-05-27 15:40:52.216735744+09:00,1622097652216.7358,4.130434782608695,-3.119565217391304,9.152173913043478,-31.143053435114503,-11.47648854961832,1.691145038167939,-0.0824587706146926,0.4182908545727136,-0.4872563718140929
2021-05-27 15:40:52.226715136+09:00,1622097652226.715,4.25,-3.141304347826087,9.097826086956522,-32.1048854961832,-12.01083969465649,4.790381679389313,-0.0824587706146926,0.416791604197901,-0.4842578710644677
2021-05-27 15:40:52.236694272+09:00,1622097652236.6943,4.565217391304348,-2.934782608695652,9.119565217391305,-39.66213740458015,-12.453587786259542,7.950687022900762,-0.0794602698650674,0.4227886056971514,-0.4872563718140929
2021-05-27 15:40:52.246673664+09:00,1622097652246.6736,4.858695652173913,-3.065217391304348,9.076086956521738,-44.89877862595419,-13.003206106870229,9.904885496183203,-0.0914542728635682,0.424287856071964,-0.4827586206896551
2021-05-27 15:40:52.256652800+09:00,1622097652256.6528,4.271739130434782,-3.141304347826087,9.152173913043478,-50.1812213740458,-14.026106870229007,10.759847328244271,-0.0869565217391304,0.4212893553223388,-0.4767616191904048
2021-05-27 15:40:52.266632192+09:00,1622097652266.632,4.08695652173913,-3.217391304347826,9.184782608695652,-53.249923664122136,-13.81236641221374,9.03465648854962,-0.0779610194902548,0.4257871064467766,-0.4767616191904048
2021-05-27 15:40:52.276611072+09:00,1622097652276.611,4.173913043478261,-3.2717391304347827,9.315217391304348,-58.013282442748086,-17.965038167938932,10.98885496183206,-0.0794602698650674,0.4287856071964018,-0.472263868065967
2021-05-27 15:40:52.286590464+09:00,1622097652286.5906,3.934782608695652,-3.0760869565217392,9.184782608695652,-66.83770992366412,-22.926870229007637,10.943053435114503,-0.0824587706146926,0.4347826086956521,-0.4662668665667166
2021-05-27 15:40:52.296569856+09:00,1622097652296.5698,4.043478260869565,-2.902173913043478,9.41304347826087,-81.09725190839694,-29.81236641221374,13.401068702290075,-0.0854572713643178,0.4347826086956521,-0.457271364317841
2021-05-27 15:40:52.306548992+09:00,1622097652306.549,3.869565217391304,-2.641304347826087,9.695652173913045,-91.1430534351145,-27.1406106870229,15.34,-0.0854572713643178,0.4407796101949025,-0.4602698650674662
2021-05-27 15:40:52.316528384+09:00,1622097652316.5283,3.402173913043478,-2.847826086956521,9.58695652173913,-107.02091603053437,-32.606259541984734,13.920152671755725,-0.0779610194902548,0.4407796101949025,-0.4452773613193403
2021-05-27 15:40:52.326507520+09:00,1622097652326.5076,3.130434782608696,-2.4347826086956523,9.782608695652174,-126.8224427480916,-43.64442748091603,19.69114503816794,-0.0794602698650674,0.4497751124437781,-0.4332833583208396
2021-05-27 15:40:52.336486912+09:00,1622097652336.4868,3.5,-2.793478260869565,9.521739130434783,-143.2804580152672,-42.46885496183206,27.09572519083969,-0.073463268365817,0.4557721139430284,-0.4227886056971514
2021-05-27 15:40:52.346466048+09:00,1622097652346.466,3.728260869565217,-2.467391304347826,9.58695652173913,-164.62396946564886,-51.27801526717557,41.55374045801526,-0.0749625187406296,0.4497751124437781,-0.4212893553223388
2021-05-27 15:40:52.356445440+09:00,1622097652356.4453,4.108695652173913,-2.2391304347826084,10.043478260869565,-194.24229007633588,-49.88870229007633,34.347633587786255,-0.0839580209895052,0.4587706146926537,-0.4032983508245877
2021-05-27 15:40:52.366424576+09:00,1622097652366.4246,3.8804347826086953,-1.9456521739130437,9.945652173913045,-219.3720610687023,-63.5375572519084,43.2636641221374,-0.08095952023988,0.4707646176911544,-0.3823088455772114
2021-05-27 15:40:52.376403712+09:00,1622097652376.4038,3.6739130434782608,-0.3804347826086956,10.097826086956522,-240.22702290076336,-66.62152671755724,46.13389312977099,-0.0689655172413793,0.4707646176911544,-0.3583208395802099
2021-05-27 15:40:52.386383104+09:00,1622097652386.383,3.75,-1.934782608695652,9.92391304347826,-293.76900763358776,-78.4230534351145,32.05755725190839,-0.0644677661169415,0.47976011994003,-0.3388305847076461
2021-05-27 15:40:52.396362240+09:00,1622097652396.3623,3.260869565217391,0.3695652173913043,11.478260869565217,-356.56290076335875,-71.90396946564886,29.38580152671756,-0.0659670164917541,0.4827586206896551,-0.3163418290854572
2021-05-27 15:40:52.406341632+09:00,1622097652406.3416,5.0978260869565215,-0.6521739130434783,11.978260869565217,-441.7232061068702,-81.69022900763359,26.088091603053435,-0.0629685157421289,0.4917541229385307,-0.2758620689655172
2021-05-27 15:40:52.416351232+09:00,1622097652416.3513,6.141304347826087,-4.467391304347826,10.58695652173913,-500.6239694656489,-98.85053435114504,-11.285954198473284,-0.0614692653673163,0.4947526236881559,-0.2353823088455772
2021-05-27 15:40:52.426300160+09:00,1622097652426.3,7.260869565217391,-10.0,10.456521739130434,-500.6239694656489,-94.04137404580152,6.622442748091602,-0.0509745127436281,0.4887556221889055,-0.1994002998500749
2021-05-27 15:40:52.436279296+09:00,1622097652436.2793,6.33695652173913,-15.76086956521739,10.83695652173913,-500.6239694656489,-115.8734351145038,-29.77450381679389,-0.0599700149925037,0.4767616191904048,-0.1424287856071964
2021-05-27 15:40:52.446258176+09:00,1622097652446.2583,10.065217391304348,-19.565217391304348,11.902173913043478,-500.6239694656489,-89.07954198473283,-25.056946564885497,-0.0569715142428785,0.4662668665667166,-0.0929535232383808
2021-05-27 15:40:52.456237824+09:00,1622097652456.2378,7.456521739130435,-19.880434782608692,14.184782608695652,-500.6239694656489,-136.01083969465648,-13.133282442748092,-0.0434782608695652,0.4392803598200899,-0.0434782608695652
2021-05-27 15:40:52.466216960+09:00,1622097652466.217,10.108695652173912,-19.543478260869566,13.695652173913045,-500.6239694656489,-145.7970992366412,-6.934809160305344,-0.0464767616191904,0.4077961019490255,0.0014992503748125
2021-05-27 15:40:52.476196352+09:00,1622097652476.1963,9.847826086956522,-19.858695652173918,18.293478260869566,-464.2728244274809,-153.69022900763358,-27.927175572519083,-0.0344827586206896,0.3823088455772114,0.0539730134932533
2021-05-27 15:40:52.486175488+09:00,1622097652486.1755,9.66304347826087,-16.717391304347824,21.467391304347824,-378.9445801526717,-212.13297709923663,46.68351145038168,-0.0269865067466266,0.3613193403298351,0.0839580209895052
2021-05-27 15:40:52.496154880+09:00,1622097652496.1548,7.956521739130435,-4.684782608695652,22.03260869565217,-213.8606106870229,-181.6291603053435,115.14152671755726,-0.0044977511244377,0.3268365817091454,0.1154422788605697
2021-05-27 15:40:52.506134016+09:00,1622097652506.134,16.01086956521739,-19.380434782608692,18.108695652173918,-155.49419847328244,-82.63679389312976,192.68351145038167,0.0239880059970015,0.3163418290854572,0.1184407796101949
2021-05-27 15:40:52.516113408+09:00,1622097652516.1133,17.543478260869566,-14.434782608695652,23.380434782608692,89.04015267175572,-30.239847328244277,154.80564885496185,0.0449775112443778,0.3043478260869565,0.1334332833583208
2021-05-27 15:40:52.526092288+09:00,1622097652526.0923,14.445652173913045,-10.83695652173913,20.64130434782609,232.90274809160303,11.378473282442748,111.93541984732823,0.0719640179910044,0.313343328335832,0.1244377811094452
2021-05-27 15:40:52.536071680+09:00,1622097652536.0718,10.978260869565217,-0.467391304347826,14.08695652173913,277.63557251908395,43.40900763358778,74.46977099236642,0.0839580209895052,0.3238380809595202,0.1154422788605697
2021-05-27 15:40:52.546051072+09:00,1622097652546.051,8.91304347826087,2.793478260869565,9.42391304347826,266.078320610687,68.03496183206107,57.79801526717557,0.0899550224887556,0.3418290854572713,0.0764617691154422
2021-05-27 15:40:52.556030464+09:00,1622097652556.0305,8.01086956521739,3.434782608695652,6.5978260869565215,254.00198473282444,93.2563358778626,58.88198473282443,0.1064467766116941,0.3463268365817091,0.0614692653673163
2021-05-27 15:40:52.566009600+09:00,1622097652566.0095,7.423913043478261,2.5217391304347827,5.923913043478261,246.7195419847328,116.15709923664122,62.7751145038168,0.0899550224887556,0.3718140929535232,0.0419790104947526
2021-05-27 15:40:52.575988736+09:00,1622097652575.9888,6.782608695652174,0.3695652173913043,6.239130434782608,258.00198473282444,134.64564885496185,59.49267175572519,0.0989505247376311,0.3703148425787106,0.0164917541229385
2021-05-27 15:40:52.585968128+09:00,1622097652585.968,5.315217391304348,-0.8043478260869565,6.815217391304348,276.7806106870229,137.3479389312977,48.408702290076334,0.0989505247376311,0.3823088455772114,-0.0104947526236881
2021-05-27 15:40:52.595947264+09:00,1622097652595.9473,3.891304347826087,-1.1304347826086956,6.967391304347826,297.02488549618323,123.07312977099237,31.79801526717557,0.1049475262368815,0.383808095952024,-0.0284857571214392
2021-05-27 15:40:52.605926400+09:00,1622097652605.9265,3.347826086956521,-1.25,6.869565217391304,314.27679389312976,101.40900763358778,16.576641221374047,0.0989505247376311,0.3898050974512743,-0.0584707646176911
2021-05-27 15:40:52.615905792+09:00,1622097652615.9058,3.4239130434782608,-1.4130434782608696,6.760869565217391,327.2996946564885,80.92045801526717,5.843816793893129,0.0944527736131934,0.3883058470764617,-0.0779610194902548
2021-05-27 15:40:52.625884928+09:00,1622097652625.885,3.565217391304348,-1.684782608695652,6.695652173913043,336.82641221374047,63.40900763358778,-0.7210687022900761,0.1109445277361319,0.4002998500749625,-0.1049475262368815
2021-05-27 15:40:52.635864576+09:00,1622097652635.8645,3.5543478260869565,-1.880434782608696,6.608695652173913,342.6279389312977,47.77541984732824,-3.759236641221374,0.1079460269865067,0.3883058470764617,-0.1274362818590704
2021-05-27 15:40:52.645873920+09:00,1622097652645.874,3.391304347826087,-2.4130434782608696,6.565217391304348,344.8111450381679,30.416641221374043,-6.5073282442748095,0.1079460269865067,0.3988005997001499,-0.1514242878560719
2021-05-27 15:40:52.655822848+09:00,1622097652655.8228,3.5543478260869565,-3.380434782608696,6.728260869565217,346.9485496183206,12.202900763358777,-8.721068702290076,0.1079460269865067,0.3898050974512743,-0.1679160419790105
2021-05-27 15:40:52.665801984+09:00,1622097652665.802,4.434782608695652,-4.576086956521739,7.25,350.52106870229005,-0.7589312977099233,-12.629465648854962,0.1154422788605697,0.3913043478260869,-0.184407796101949
2021-05-27 15:40:52.675781376+09:00,1622097652675.7812,5.423913043478261,-5.663043478260869,7.641304347826087,355.05541984732827,-4.774198473282442,-19.911908396946565,0.1199400299850075,0.3958020989505247,-0.1949025487256371
2021-05-27 15:40:52.685760512+09:00,1622097652685.7605,6.0978260869565215,-6.271739130434782,7.782608695652174,356.3073282442748,-4.789465648854962,-29.545496183206104,0.1199400299850075,0.3853073463268365,-0.217391304347826
2021-05-27 15:40:52.695739392+09:00,1622097652695.7395,6.5,-6.293478260869565,7.826086956521739,352.6279389312977,-2.911603053435114,-43.45389312977099,0.1244377811094452,0.3898050974512743,-0.2188905547226386
2021-05-27 15:40:52.705719040+09:00,1622097652705.719,6.695652173913043,-6.510869565217391,7.945652173913043,345.1775572519084,-0.3619847328244271,-60.0187786259542,0.1259370314842578,0.3793103448275862,-0.2443778110944527
2021-05-27 15:40:52.715698176+09:00,1622097652715.6982,6.380434782608695,-6.902173913043479,8.33695652173913,335.91038167938933,-2.361984732824427,-77.37755725190839,0.1229385307346326,0.3748125937031484,-0.2578710644677661
2021-05-27 15:40:52.725677568+09:00,1622097652725.6775,5.815217391304348,-7.25,8.891304347826086,324.23099236641224,-9.1406106870229,-93.40809160305342,0.1274362818590704,0.3778110944527736,-0.2623688155922039
2021-05-27 15:40:52.735656704+09:00,1622097652735.6567,5.413043478260869,-7.619565217391304,9.608695652173912,309.2996946564885,-16.713129770992367,-102.98061068702287,0.12143928035982,0.3793103448275862,-0.2743628185907046
2021-05-27 15:40:52.745636096+09:00,1622097652745.636,5.434782608695652,-8.402173913043478,10.695652173913045,291.0401526717557,-24.30091603053435,-110.14091603053434,0.1184407796101949,0.3883058470764617,-0.2788605697151424
2021-05-27 15:40:52.755615232+09:00,1622097652755.6152,6.282608695652174,-11.119565217391305,12.67391304347826,278.64320610687025,-23.033740458015263,-118.7516030534351,0.1139430284857571,0.3778110944527736,-0.2923538230884557
2021-05-27 15:40:52.765594368+09:00,1622097652765.5945,7.021739130434782,-15.641304347826086,15.097826086956522,283.3149618320611,-10.51465648854962,-129.3775572519084,0.1094452773613193,0.3883058470764617,-0.3013493253373313
2021-05-27 15:40:52.775573504+09:00,1622097652775.5735,6.163043478260869,-19.22826086956522,16.195652173913043,305.8951145038168,2.630381679389313,-141.072213740458,0.1034482758620689,0.4017991004497751,-0.3178410794602698
2021-05-27 15:40:52.785552896+09:00,1622097652785.553,5.021739130434782,-19.869565217391305,15.315217391304348,326.7042748091603,14.64564885496183,-149.9577099236641,0.1004497751124437,0.4077961019490255,-0.3643178410794602
2021-05-27 15:40:52.795532288+09:00,1622097652795.5322,4.565217391304348,-19.880434782608692,12.880434782608695,332.9943511450382,30.92045801526717,-150.81267175572518,0.1004497751124437,0.4077961019490255,-0.3643178410794602
2021-05-27 15:40:52.805511680+09:00,1622097652805.5117,4.83695652173913,-19.619565217391305,10.152173913043478,323.253893129771,55.4242748091603,-141.453893129771,0.0719640179910044,0.3988005997001499,-0.424287856071964
2021-05-27 15:40:52.815490816+09:00,1622097652815.4907,5.195652173913043,-19.39130434782609,7.663043478260869,302.9332824427481,81.31740458015267,-122.26305343511449,0.0659670164917541,0.3958020989505247,-0.457271364317841
2021-05-27 15:40:52.825469952+09:00,1622097652825.47,5.010869565217392,-18.619565217391305,4.641304347826087,278.9180152671756,92.8593893129771,-97.53022900763358,0.0554722638680659,0.3943028485757121,-0.4737631184407796
2021-05-27 15:40:52.835449344+09:00,1622097652835.4492,3.010869565217391,-19.108695652173918,1.608695652173913,252.47526717557253,69.71435114503817,-68.59893129770991,0.0569715142428785,0.3703148425787106,-0.512743628185907
2021-05-27 15:40:52.845428480+09:00,1622097652845.4285,0.934782608695652,-19.869565217391305,-1.7717391304347825,231.9103816793893,14.64564885496183,-34.12564885496183,0.0419790104947526,0.3718140929535232,-0.5262368815592203
2021-05-27 15:40:52.855407616+09:00,1622097652855.4077,-1.5,-19.90217391304348,-5.369565217391304,209.8493129770992,-66.82,-3.3470229007633585,0.0419790104947526,0.3583208395802099,-0.5472263868065966
2021-05-27 15:40:52.865387008+09:00,1622097652865.387,-2.6956521739130435,-19.880434782608692,-8.782608695652174,178.42946564885494,-144.23984732824425,18.011755725190838,0.0284857571214392,0.3598200899550224,-0.5622188905547226
2021-05-27 15:40:52.875396608+09:00,1622097652875.3967,-0.4130434782608695,-19.880434782608692,-11.434782608695652,133.48290076335877,-179.33908396946563,31.11099236641221,0.0119940029985007,0.3478260869565217,-0.5637181409295352
2021-05-27 15:40:52.885345792+09:00,1622097652885.3457,4.413043478260869,-18.65217391304348,-12.369565217391305,73.5745038167939,-145.03374045801525,44.14916030534351,-0.0014992503748125,0.3463268365817091,-0.5622188905547226
2021-05-27 15:40:52.895324672+09:00,1622097652895.3247,8.33695652173913,-17.97826086956522,-11.304347826086955,12.963816793893129,-59.09480916030534,57.75221374045801,-0.0179910044977511,0.3448275862068965,-0.5652173913043478
2021-05-27 15:40:52.905304064+09:00,1622097652905.304,7.717391304347826,-17.195652173913043,-9.043478260869565,-38.77664122137404,15.01206106870229,63.84381679389313,-0.0164917541229385,0.3493253373313343,-0.5667166416791604
2021-05-27 15:40:52.915283200+09:00,1622097652915.2832,5.413043478260869,-11.021739130434783,-4.260869565217392,-44.77664122137404,27.241068702290075,51.27893129770992,-0.0119940029985007,0.3628185907046476,-0.5667166416791604
2021-05-27 15:40:52.925262336+09:00,1622097652925.2625,2.141304347826087,5.978260869565217,2.402173913043478,-254.05908396946563,-11.98030534351145,14.759847328244271,-0.0119940029985007,0.3793103448275862,-0.56071964017991
2021-05-27 15:40:52.935241728+09:00,1622097652935.2417,8.380434782608695,-6.239130434782608,12.42391304347826,-133.79954198473283,-27.1406106870229,-15.743969465648854,0.0014992503748125,0.383808095952024,-0.545727136431784
2021-05-27 15:40:52.945220864+09:00,1622097652945.221,13.66304347826087,16.304347826086957,12.77173913043478,-232.2575572519084,-26.1024427480916,1.7674809160305345,-0.0029985007496251,0.4002998500749625,-0.5367316341829085
2021-05-27 15:40:52.955200256+09:00,1622097652955.2002,5.543478260869565,17.695652173913043,-0.4130434782608695,-438.776641221374,47.5006106870229,77.47740458015268,-0.0059970014992503,0.4137931034482758,-0.5157421289355322
2021-05-27 15:40:52.965179392+09:00,1622097652965.1794,-3.8369565217391295,-15.608695652173912,11.17391304347826,-406.1201526717557,58.67618320610687,92.79038167938933,0.0074962518740629,0.4512743628185907,-0.4902548725637181
2021-05-27 15:40:52.975158784+09:00,1622097652975.1587,-3.619565217391304,-19.293478260869566,19.40217391304348,-354.05908396946563,44.79832061068702,104.10335877862596,0.0119940029985007,0.4632683658170914,-0.4602698650674662
2021-05-27 15:40:52.985137920+09:00,1622097652985.138,3.4565217391304346,-17.152173913043477,21.89130434782609,-327.0209160305343,112.99679389312976,147.5079389312977,0.0149925037481259,0.4947526236881559,-0.4347826086956521
2021-05-27 15:40:52.995117312+09:00,1622097652995.1172,10.16304347826087,-19.869565217391305,16.456521739130434,-192.5476335877863,137.19526717557252,99.72167938931298,0.0344827586206896,0.5142428785607196,-0.4197901049475262
2021-05-27 15:40:53.005096448+09:00,1622097653005.0964,12.728260869565217,-11.304347826086955,11.17391304347826,-59.17358778625954,140.87465648854962,74.7751145038168,0.0464767616191904,0.52023988005997,-0.4212893553223388
2021-05-27 15:40:53.015075584+09:00,1622097653015.0757,-8.402173913043478,-8.630434782608695,17.141304347826086,-40.92931297709924,67.77541984732824,37.49267175572519,0.0599700149925037,0.5292353823088456,-0.4212893553223388
2021-05-27 15:40:53.025054976+09:00,1622097653025.055,-1.7608695652173914,-4.532608695652174,9.815217391304348,-5.295725190839694,17.118931297709924,13.446870229007631,0.0779610194902548,0.5247376311844077,-0.4197901049475262
2021-05-27 15:40:53.035034112+09:00,1622097653035.0342,10.043478260869565,-4.25,10.271739130434783,-49.83007633587786,24.050229007633583,12.851450381679388,0.0614692653673163,0.527736131934033,-0.4107946026986506
2021-05-27 15:40:53.045013504+09:00,1622097653045.0134,1.2065217391304348,-3.4239130434782608,10.434782608695652,-6.3796946564885495,12.523511450381678,4.530839694656488,0.0569715142428785,0.5412293853073463,-0.4107946026986506
2021-05-27 15:40:53.054992896+09:00,1622097653054.993,3.728260869565217,-3.6630434782608696,9.891304347826086,-16.852977099236643,7.393740458015267,1.874351145038168,0.0674662668665667,0.5307346326836582,-0.416791604197901
2021-05-27 15:40:53.064972032+09:00,1622097653064.972,4.489130434782608,-3.391304347826087,9.326086956521738,-0.944580152671756,13.027328244274807,7.4926717557251905,0.0674662668665667,0.5322338830584707,-0.4122938530734633
2021-05-27 15:40:53.074951168+09:00,1622097653074.9512,2.532608695652174,-2.4565217391304346,9.869565217391305,-8.043816793893129,12.309770992366412,7.278931297709923,0.0614692653673163,0.5367316341829085,-0.4122938530734633
2021-05-27 15:40:53.084930304+09:00,1622097653084.9304,4.282608695652174,-3.0217391304347827,9.315217391304348,4.353129770992366,14.721984732824426,8.51557251908397,0.0659670164917541,0.5412293853073463,-0.4077961019490255
2021-05-27 15:40:53.094909696+09:00,1622097653094.9097,3.793478260869565,-3.619565217391304,9.369565217391305,5.7424427480916025,16.935725190839694,11.233129770992363,0.0644677661169415,0.5397301349325337,-0.4212893553223388
2021-05-27 15:40:53.104919552+09:00,1622097653104.9194,3.4239130434782608,-2.565217391304348,9.706521739130434,-2.2117557251908395,15.48534351145038,8.851450381679388,0.0599700149925037,0.5292353823088456,-0.4107946026986506
2021-05-27 15:40:53.114868224+09:00,1622097653114.8682,3.4565217391304346,-3.043478260869565,9.576086956521738,9.009618320610686,15.134198473282442,8.622442748091602,0.0779610194902548,0.5307346326836582,-0.4077961019490255
2021-05-27 15:40:53.124847360+09:00,1622097653124.8474,3.347826086956521,-3.032608695652174,9.521739130434783,6.215725190839694,12.569312977099235,7.049923664122137,0.073463268365817,0.5367316341829085,-0.4182908545727136
2021-05-27 15:40:53.134827008+09:00,1622097653134.827,3.152173913043478,-2.402173913043478,9.706521739130434,1.437099236641221,11.5006106870229,6.3781679389312975,0.0749625187406296,0.5322338830584707,-0.4212893553223388
2021-05-27 15:40:53.144805888+09:00,1622097653144.806,3.4130434782608696,-2.3260869565217392,9.5,3.4676335877862594,10.523511450381678,5.904885496183206,0.0779610194902548,0.5352323838080959,-0.416791604197901
2021-05-27 15:40:53.154785280+09:00,1622097653154.7852,3.434782608695652,-2.902173913043478,9.358695652173912,3.360763358778626,12.66091603053435,6.805648854961832,0.0779610194902548,0.5352323838080959,-0.4182908545727136
2021-05-27 15:40:53.164764416+09:00,1622097653164.7644,3.2282608695652173,-2.880434782608696,9.532608695652174,-1.127786259541985,7.561679389312977,4.485038167938931,0.0779610194902548,0.5427286356821589,-0.4107946026986506
2021-05-27 15:40:53.174743552+09:00,1622097653174.7437,3.3043478260869565,-2.7717391304347827,9.543478260869565,-2.074351145038168,6.3097709923664125,4.0575572519083964,0.0719640179910044,0.5397301349325337,-0.4107946026986506
2021-05-27 15:40:53.184722944+09:00,1622097653184.723,3.2282608695652173,-2.717391304347826,9.554347826086955,-3.5247328244274807,5.653282442748091,3.0041221374045803,0.0794602698650674,0.5367316341829085,-0.4182908545727136
2021-05-27 15:40:53.194701824+09:00,1622097653194.702,3.282608695652174,-2.7391304347826084,9.608695652173912,-3.188854961832061,4.050229007633588,2.790381679389313,0.0764617691154422,0.5442278860569715,-0.4182908545727136
2021-05-27 15:40:53.204681472+09:00,1622097653204.6814,3.108695652173913,-2.7065217391304346,9.76086956521739,-6.914045801526718,2.554045801526718,2.5003053435114504,0.0794602698650674,0.5397301349325337,-0.4182908545727136
2021-05-27 15:40:53.214660608+09:00,1622097653214.6606,3.0869565217391304,-2.9239130434782608,9.554347826086955,-4.639236641221374,3.714351145038168,1.6148091603053436,0.0794602698650674,0.5382308845577212,-0.4152923538230884
2021-05-27 15:40:53.224640+09:00,1622097653224.64,2.9239130434782608,-2.8260869565217392,9.576086956521738,-4.425496183206107,1.500610687022901,0.5766412213740459,0.0764617691154422,0.5352323838080959,-0.4182908545727136
2021-05-27 15:40:53.234619136+09:00,1622097653234.6191,3.0869565217391304,-2.934782608695652,9.51086956521739,-3.692671755725191,0.9967938931297712,0.0575572519083971,0.0869565217391304,0.5397301349325337,-0.4197901049475262
2021-05-27 15:40:53.244598272+09:00,1622097653244.5984,3.347826086956521,-2.9130434782608696,9.51086956521739,-3.3567938931297707,1.7296183206106872,-0.1256488549618319,0.08095952023988,0.5412293853073463,-0.4197901049475262
2021-05-27 15:40:53.254577664+09:00,1622097653254.5776,3.380434782608696,-2.847826086956521,9.619565217391305,-5.081984732824427,-0.4535877862595416,1.2636641221374048,0.0779610194902548,0.5397301349325337,-0.409295352323838
2021-05-27 15:40:53.264556800+09:00,1622097653264.557,3.391304347826087,-2.760869565217391,9.445652173913045,-1.7690076335877865,2.050229007633588,-0.4157251908396945,0.0989505247376311,0.5232383808095952,-0.4332833583208396
2021-05-27 15:40:53.274535936+09:00,1622097653274.536,3.739130434782608,-2.619565217391304,9.195652173913045,9.498167938931298,5.546412213740458,2.240763358778626,0.08095952023988,0.5412293853073463,-0.4152923538230884
2021-05-27 15:40:53.284515328+09:00,1622097653284.5154,3.2282608695652173,-2.75,9.467391304347826,-1.845343511450382,-0.1024427480916027,-1.453893129770992,0.0779610194902548,0.5382308845577212,-0.4227886056971514
2021-05-27 15:40:53.294494720+09:00,1622097653294.4946,3.4239130434782608,-2.6630434782608696,9.478260869565217,-3.509465648854962,0.5693129770992369,-0.4615267175572517,0.0779610194902548,0.5337331334332833,-0.4197901049475262
2021-05-27 15:40:53.304474112+09:00,1622097653304.474,3.1739130434782608,-2.815217391304348,9.630434782608695,-4.165954198473282,-1.6749618320610684,-1.026412213740458,0.0794602698650674,0.5412293853073463,-0.4122938530734633
2021-05-27 15:40:53.314453248+09:00,1622097653314.4531,3.5217391304347827,-2.608695652173913,9.543478260869565,-4.623969465648855,-0.7131297709923661,-1.1027480916030532,0.088455772113943,0.5382308845577212,-0.4152923538230884
2021-05-27 15:40:53.324432384+09:00,1622097653324.4324,3.282608695652174,-2.9565217391304346,9.478260869565217,-5.249923664122138,-1.8581679389312973,-2.4462595419847326,0.0779610194902548,0.5412293853073463,-0.4212893553223388
2021-05-27 15:40:53.334441984+09:00,1622097653334.442,3.2391304347826084,-2.9130434782608696,9.51086956521739,-8.01328244274809,-0.331450381679389,-0.2477862595419845,0.0839580209895052,0.5367316341829085,-0.4212893553223388
2021-05-27 15:40:53.344390912+09:00,1622097653344.3909,3.4782608695652173,-2.7282608695652173,9.597826086956522,-6.639236641221374,-2.9421374045801523,-3.1790839694656485,0.0779610194902548,0.5382308845577212,-0.4212893553223388
2021-05-27 15:40:53.354370048+09:00,1622097653354.37,2.75,-2.934782608695652,9.652173913043478,-8.471297709923665,-5.278015267175572,-3.392824427480916,0.0869565217391304,0.5352323838080959,-0.4152923538230884
2021-05-27 15:40:53.364349440+09:00,1622097653364.3494,3.565217391304348,-2.6739130434782608,9.456521739130434,-6.120152671755725,-1.5222900763358775,-6.736335877862596,0.0824587706146926,0.5412293853073463,-0.4122938530734633
2021-05-27 15:40:53.374328576+09:00,1622097653374.3286,3.641304347826087,-2.6630434782608696,9.467391304347826,-11.265190839694656,-9.598625954198472,-6.82793893129771,0.0794602698650674,0.545727136431784,-0.4197901049475262
2021-05-27 15:40:53.384308224+09:00,1622097653384.308,3.3043478260869565,-2.760869565217391,9.5,-15.769007633587789,-10.423053435114504,-5.2859541984732825,0.0854572713643178,0.5352323838080959,-0.4182908545727136
2021-05-27 15:40:53.394287104+09:00,1622097653394.287,3.1956521739130435,-2.869565217391304,9.92391304347826,-21.158320610687024,-12.713129770992367,-3.9577099236641216,0.0779610194902548,0.5442278860569715,-0.409295352323838
2021-05-27 15:40:53.404266240+09:00,1622097653404.2664,3.3043478260869565,-1.6195652173913042,10.521739130434783,-34.700305343511445,-14.285648854961831,-5.2859541984732825,0.0749625187406296,0.5412293853073463,-0.4122938530734633
2021-05-27 15:40:53.414245632+09:00,1622097653414.2456,3.1630434782608696,-2.532608695652174,10.065217391304348,-39.69267175572519,-20.056641221374047,-3.972977099236641,0.0899550224887556,0.5502248875562219,-0.4017991004497751
2021-05-27 15:40:53.424224768+09:00,1622097653424.2249,3.097826086956521,-2.2717391304347827,10.25,-52.074351145038165,-23.49175572519084,-2.950076335877862,0.073463268365817,0.5412293853073463,-0.4077961019490255
2021-05-27 15:40:53.434204160+09:00,1622097653434.204,2.891304347826087,-2.75,10.0,-62.28809160305343,-33.7818320610687,2.408702290076336,0.073463268365817,0.5397301349325337,-0.4002998500749625
2021-05-27 15:40:53.444183040+09:00,1622097653444.183,2.7717391304347827,-1.9130434782608696,10.380434782608695,-81.87587786259542,-37.87343511450381,7.401068702290075,0.0839580209895052,0.5472263868065966,-0.3943028485757121
2021-05-27 15:40:53.454162688+09:00,1622097653454.1626,2.619565217391304,-2.032608695652174,10.402173913043478,-97.952213740458,-42.69786259541985,11.584274809160304,0.0779610194902548,0.5412293853073463,-0.3778110944527736
2021-05-27 15:40:53.464141824+09:00,1622097653464.1418,2.597826086956521,-2.0543478260869565,10.358695652173912,-121.99801526717556,-47.30854961832061,15.0193893129771,0.08095952023988,0.5472263868065966,-0.376311844077961
2021-05-27 15:40:53.474121216+09:00,1622097653474.121,2.858695652173913,-2.1847826086956523,10.5,-148.07435114503818,-56.52992366412214,23.080458015267176,0.0674662668665667,0.5487256371814093,-0.3718140929535232
2021-05-27 15:40:53.484100352+09:00,1622097653484.1003,3.75,-2.4782608695652173,10.434782608695652,-168.39496183206109,-49.903969465648856,30.729312977099237,0.0779610194902548,0.5442278860569715,-0.3508245877061469
2021-05-27 15:40:53.494079488+09:00,1622097653494.0796,3.5,-1.184782608695652,10.347826086956522,-193.96748091603052,-45.2169465648855,36.56137404580152,0.0869565217391304,0.5622188905547226,-0.3418290854572713
2021-05-27 15:40:53.504058880+09:00,1622097653504.0588,3.902173913043478,-1.5434782608695652,10.184782608695652,-224.85297709923665,-46.20931297709924,53.782748091603054,0.0854572713643178,0.5592203898050975,-0.320839580209895
2021-05-27 15:40:53.514038016+09:00,1622097653514.038,3.967391304347826,-1.315217391304348,10.630434782608695,-245.89114503816796,-43.87343511450381,78.46977099236642,0.0854572713643178,0.5697151424287856,-0.3028485757121439
2021-05-27 15:40:53.524017152+09:00,1622097653524.017,3.989130434782608,0.0108695652173913,10.891304347826086,-267.7537404580152,-11.354351145038168,114.2102290076336,0.0824587706146926,0.5667166416791604,-0.2773613193403298
2021-05-27 15:40:53.533996544+09:00,1622097653533.9966,4.782608695652174,-1.4021739130434785,11.608695652173912,-322.5934351145038,-20.86580152671756,110.24076335877862,0.0974512743628185,0.5802098950524738,-0.2578710644677661
2021-05-27 15:40:53.543975936+09:00,1622097653543.9758,4.271739130434782,-0.2065217391304347,11.206521739130434,-370.3033587786259,-15.537557251908398,127.20259541984731,0.1004497751124437,0.5772113943028485,-0.217391304347826
2021-05-27 15:40:53.553955072+09:00,1622097653553.955,7.641304347826087,-1.4239130434782608,11.108695652173912,-425.3262595419847,0.8441221374045804,144.2254961832061,0.1109445277361319,0.5757121439280359,-0.1934032983508246
2021-05-27 15:40:53.563964928+09:00,1622097653563.9648,9.51086956521739,-4.641304347826087,11.16304347826087,-478.8224427480916,10.966259541984732,162.3170992366412,0.1274362818590704,0.5787106446776612,-0.1634182908545727
2021-05-27 15:40:53.573913600+09:00,1622097653573.9136,6.554347826086956,-9.804347826086955,11.195652173913045,-500.6239694656489,-2.4230534351145034,187.29419847328245,0.1424287856071964,0.5727136431784108,-0.1184407796101949
2021-05-27 15:40:53.583892736+09:00,1622097653583.8928,5.934782608695652,-19.08695652173913,16.902173913043477,-500.6239694656489,-22.28564885496183,205.15679389312976,0.1424287856071964,0.568215892053973,-0.0719640179910044
2021-05-27 15:40:53.593872128+09:00,1622097653593.872,5.293478260869565,-16.33695652173913,13.51086956521739,-500.6239694656489,15.97389312977099,202.16442748091603,0.1664167916041979,0.5502248875562219,-0.0239880059970015
2021-05-27 15:40:53.603851264+09:00,1622097653603.8513,9.17391304347826,-16.83695652173913,15.141304347826086,-500.6239694656489,15.48534351145038,157.79801526717557,0.1904047976011993,0.5292353823088456,0.0194902548725637
2021-05-27 15:40:53.613830656+09:00,1622097653613.8306,5.902173913043479,-17.630434782608695,13.489130434782608,-500.6239694656489,-3.2322137404580147,118.72931297709924,0.1994002998500749,0.4977511244377811,0.0674662668665667
2021-05-27 15:40:53.623809792+09:00,1622097653623.8098,4.608695652173913,-16.369565217391305,15.369565217391305,-457.5858015267176,-34.30091603053435,99.46213740458016,0.2128935532233883,0.4737631184407796,0.1034482758620689
2021-05-27 15:40:53.633789184+09:00,1622097653633.789,6.228260869565217,-15.880434782608695,19.02173913043478,-403.6316030534351,-98.68259541984732,76.133893129771,0.2143928035982009,0.4467766116941529,0.1394302848575712
2021-05-27 15:40:53.643768320+09:00,1622097653643.7683,6.130434782608695,-4.695652173913043,20.119565217391305,-291.188854961832,-160.1940458015267,104.07282442748092,0.2263868065967016,0.4107946026986506,0.1649175412293853
2021-05-27 15:40:53.653747456+09:00,1622097653653.7476,5.119565217391304,-15.67391304347826,14.695652173913045,-383.952213740458,-116.25511450381678,173.06519083969465,0.2443778110944527,0.3913043478260869,0.1904047976011993
2021-05-27 15:40:53.663726848+09:00,1622097653663.7268,15.358695652173912,-18.369565217391305,24.456521739130437,35.28442748091603,-116.01083969465648,121.46213740458016,0.2713643178410794,0.3613193403298351,0.1994002998500749
2021-05-27 15:40:53.673705984+09:00,1622097653673.706,13.66304347826087,-13.141304347826086,20.05434782608696,164.41419847328245,-55.72076335877863,68.72931297709924,0.2713643178410794,0.3613193403298351,0.1994002998500749
2021-05-27 15:40:53.683685376+09:00,1622097653683.6853,12.152173913043478,-5.478260869565217,15.67391304347826,239.696641221374,-33.94977099236641,18.50030534351145,0.3193403298350824,0.4257871064467766,0.1964017991004497
2021-05-27 15:40:53.693664512+09:00,1622097653693.6646,9.445652173913045,2.7065217391304346,9.25,227.7577099236641,-18.66732824427481,-33.13328244274809,0.320839580209895,0.4632683658170914,0.1754122938530734
2021-05-27 15:40:53.703643904+09:00,1622097653703.6438,8.195652173913043,5.282608695652174,6.032608695652174,194.29206106870228,-9.736030534351146,-70.38519083969464,0.320839580209895,0.5022488755622189,0.1349325337331334
2021-05-27 15:40:53.713623040+09:00,1622097653713.623,7.478260869565217,4.184782608695652,5.010869565217392,173.60503816793891,-1.247480916030534,-103.95770992366413,0.3058470764617691,0.5352323838080959,0.1049475262368815
2021-05-27 15:40:53.723602176+09:00,1622097653723.6023,7.565217391304348,0.6956521739130435,6.467391304347826,183.0248854961832,17.65328244274809,-124.4309923664122,0.2878560719640179,0.5547226386806596,0.0794602698650674
2021-05-27 15:40:53.733581568+09:00,1622097653733.5815,6.206521739130435,-0.9456521739130436,7.663043478260869,206.20045801526717,34.38610687022901,-140.4309923664122,0.272863568215892,0.5787106446776612,0.0374812593703148
2021-05-27 15:40:53.743560704+09:00,1622097653743.5608,3.989130434782608,-1.2173913043478262,8.282608695652174,232.078320610687,40.12656488549618,-153.9577099236641,0.2488755622188905,0.608695652173913,-0.0059970014992503
2021-05-27 15:40:53.753540096+09:00,1622097653753.54,1.9891304347826089,-0.8695652173913043,8.42391304347826,254.1546564885496,34.20290076335878,-163.9577099236641,0.2188905547226386,0.6101949025487257,-0.0509745127436281
2021-05-27 15:40:53.763519232+09:00,1622097653763.5193,0.4565217391304347,-0.4891304347826087,8.293478260869565,268.490534351145,21.256335877862597,-169.3470229007633,0.1904047976011993,0.6131934032983508,-0.0974512743628185
2021-05-27 15:40:53.773498368+09:00,1622097653773.4983,-0.4782608695652174,-0.6847826086956521,8.217391304347826,278.5058015267176,7.118931297709923,-168.8279389312977,0.1709145427286356,0.6221889055472264,-0.1424287856071964
2021-05-27 15:40:53.783477760+09:00,1622097653783.4778,-1.0,-1.4565217391304348,8.630434782608695,286.73480916030536,-5.674961832061068,-163.56076335877862,0.1469265367316341,0.6116941529235382,-0.1949025487256371
2021-05-27 15:40:53.793487616+09:00,1622097653793.4875,-1.326086956521739,-2.652173913043478,9.206521739130434,298.73480916030536,-15.216946564885497,-153.40809160305344,0.1244377811094452,0.6011994002998501,-0.224887556221889
2021-05-27 15:40:53.803436288+09:00,1622097653803.4363,-1.641304347826087,-3.652173913043478,9.706521739130434,312.42946564885494,-22.80473282442748,-138.38519083969464,0.1109445277361319,0.5772113943028485,-0.2668665667166416
2021-05-27 15:40:53.813415424+09:00,1622097653813.4155,-2.097826086956521,-4.326086956521739,9.978260869565217,324.36839694656487,-30.86580152671756,-121.98824427480916,0.088455772113943,0.5562218890554722,-0.3013493253373313
2021-05-27 15:40:53.823394816+09:00,1622097653823.3948,-2.597826086956521,-4.717391304347826,10.26086956521739,333.11648854961834,-42.590992366412216,-105.40809160305342,0.073463268365817,0.5367316341829085,-0.3223388305847076
2021-05-27 15:40:53.833373952+09:00,1622097653833.374,-2.7282608695652173,-5.0978260869565215,10.532608695652174,338.2004580152672,-55.07954198473282,-89.11801526717556,0.0749625187406296,0.527736131934033,-0.3493253373313343
2021-05-27 15:40:53.843353344+09:00,1622097653843.3533,-2.1847826086956523,-5.652173913043479,10.847826086956522,340.73480916030536,-64.83526717557251,-73.72870229007633,0.0629685157421289,0.5037481259370314,-0.3823088455772114
2021-05-27 15:40:53.853332480+09:00,1622097653853.3325,-1.326086956521739,-6.804347826086956,11.16304347826087,345.05541984732827,-68.45358778625953,-61.9424427480916,0.0539730134932533,0.47976011994003,-0.3973013493253373
2021-05-27 15:40:53.863311872+09:00,1622097653863.3118,-0.3260869565217391,-7.619565217391304,11.576086956521738,348.2004580152672,-66.19404580152671,-54.75160305343511,0.0449775112443778,0.457271364317841,-0.4212893553223388
2021-05-27 15:40:53.873291008+09:00,1622097653873.291,0.5,-8.26086956521739,12.08695652173913,349.8645801526717,-61.4612213740458,-53.27068702290076,0.0419790104947526,0.4362818590704647,-0.4407796101949025
2021-05-27 15:40:53.883270400+09:00,1622097653883.2705,1.108695652173913,-8.58695652173913,12.445652173913045,349.77297709923664,-58.46885496183206,-58.2630534351145,0.0299850074962518,0.4197901049475262,-0.4557721139430284
2021-05-27 15:40:53.893249536+09:00,1622097653893.2495,1.7391304347826086,-8.641304347826086,12.826086956521738,343.91038167938933,-58.4993893129771,-68.96534351145037,0.0149925037481259,0.4077961019490255,-0.4767616191904048
2021-05-27 15:40:53.903228672+09:00,1622097653903.2288,3.108695652173913,-9.358695652173912,13.619565217391305,335.02488549618323,-55.903969465648856,-82.2630534351145,0.0194902548725637,0.3823088455772114,-0.4962518740629685
2021-05-27 15:40:53.913208064+09:00,1622097653913.208,5.543478260869565,-11.228260869565217,14.92391304347826,328.3531297709924,-39.26274809160305,-94.55312977099236,0.0104947526236881,0.3613193403298351,-0.4992503748125937
2021-05-27 15:40:53.923187200+09:00,1622097653923.1873,7.195652173913043,-14.52173913043478,17.195652173913043,329.8035114503817,-9.33908396946565,-110.69053435114505,0.0014992503748125,0.3403298350824588,-0.5157421289355322
2021-05-27 15:40:53.933166592+09:00,1622097653933.1665,6.8478260869565215,-18.380434782608692,18.72826086956522,345.91038167938933,18.233435114503816,-132.81267175572518,-0.0119940029985007,0.3163418290854572,-0.5232383808095952
2021-05-27 15:40:53.943145728+09:00,1622097653943.1458,4.782608695652174,-19.869565217391305,18.32608695652174,365.4065648854962,28.47770992366412,-156.87374045801525,-0.0149925037481259,0.2893553223388306,-0.5442278860569715
2021-05-27 15:40:53.953125120+09:00,1622097653953.125,3.5217391304347827,-19.880434782608692,15.826086956521738,372.6890076335878,26.24870229007633,-173.56076335877862,-0.0164917541229385,0.2563718140929535,-0.56071964017991
2021-05-27 15:40:53.963104256+09:00,1622097653963.1042,4.565217391304348,-19.880434782608692,12.239130434782608,358.047786259542,28.4624427480916,-174.5225954198473,-0.0239880059970015,0.232383808095952,-0.5667166416791604
2021-05-27 15:40:53.973083392+09:00,1622097653973.0835,6.554347826086956,-19.880434782608692,8.17391304347826,325.0706870229008,42.8593893129771,-159.7134351145038,-0.032983508245877,0.2008995502248875,-0.5787106446776612
2021-05-27 15:40:53.983062784+09:00,1622097653983.0627,6.8478260869565215,-19.880434782608692,3.282608695652174,285.1928244274809,52.01969465648855,-137.75923664122135,-0.0179910044977511,0.1559220389805097,-0.5907046476761619
2021-05-27 15:40:53.993041920+09:00,1622097653993.042,3.25,-19.880434782608692,-1.717391304347826,257.05541984732827,20.859389312977097,-117.6370992366412,-0.04047976011994,0.1394302848575712,-0.5877061469265367
2021-05-27 15:40:54.003021312+09:00,1622097654003.0212,-0.2065217391304347,-19.880434782608692,-8.380434782608695,223.63557251908395,-49.00320610687023,-97.25541984732824,-0.0419790104947526,0.1244377811094452,-0.5907046476761619
2021-05-27 15:40:54.013000448+09:00,1622097654013.0005,-3.260869565217391,-19.880434782608692,-14.16304347826087,173.81877862595417,-137.0795419847328,-89.11801526717556,-0.0449775112443778,0.1094452773613193,-0.5907046476761619
2021-05-27 15:40:54.023010560+09:00,1622097654023.0105,-1.2065217391304348,-19.880434782608692,-16.76086956521739,112.29206106870228,-178.01083969465648,-84.9042748091603,-0.0539730134932533,0.095952023988006,-0.5772113943028485
2021-05-27 15:40:54.032958976+09:00,1622097654032.959,4.467391304347826,-19.880434782608692,-16.782608695652172,43.29969465648855,-131.55282442748089,-75.66763358778626,-0.0584707646176911,0.0899550224887556,-0.5727136431784108
2021-05-27 15:40:54.042938112+09:00,1622097654042.9382,8.326086956521738,-19.880434782608692,-15.434782608695652,-29.18885496183206,-25.216946564885497,-53.63709923664122,-0.0704647676161919,0.08095952023988,-0.5667166416791604
2021-05-27 15:40:54.052917504+09:00,1622097654052.9175,5.206521739130435,-19.695652173913043,-12.576086956521738,-92.9903816793893,49.97389312977099,-24.96534351145038,-0.0764617691154422,0.073463268365817,-0.5577211394302848
2021-05-27 15:40:54.062896640+09:00,1622097654062.8967,0.5978260869565217,-18.84782608695652,-8.065217391304348,-143.92167938931297,44.61511450381679,-15.118015267175572,-0.0704647676161919,0.0794602698650674,-0.5562218890554722
2021-05-27 15:40:54.072876032+09:00,1622097654072.876,8.228260869565217,21.67391304347826,14.717391304347826,-178.77664122137406,67.94335877862595,-0.6447328244274807,-0.0599700149925037,0.08095952023988,-0.5547226386806596
2021-05-27 15:40:54.082855168+09:00,1622097654082.8552,13.956521739130434,-6.945652173913043,15.293478260869565,-125.18885496183206,-17.339083969465648,-60.46152671755725,-0.0629685157421289,0.0914542728635682,-0.5502248875562219
2021-05-27 15:40:54.092834560+09:00,1622097654092.8345,13.728260869565217,24.30434782608696,11.076086956521738,-307.4331297709924,17.5006106870229,30.37816793893129,-0.0614692653673163,0.0929535232383808,-0.5427286356821589
2021-05-27 15:40:54.102813696+09:00,1622097654102.8137,-8.717391304347826,9.33695652173913,-4.532608695652174,-472.5934351145038,91.01206106870228,104.6224427480916,-0.0644677661169415,0.1004497751124437,-0.5397301349325337
2021-05-27 15:40:54.112793088+09:00,1622097654112.793,-8.934782608695652,-19.815217391304348,23.195652173913043,-330.2270229007633,62.93572519083969,111.76748091603054,-0.0614692653673163,0.1259370314842578,-0.5337331334332833
2021-05-27 15:40:54.122772224+09:00,1622097654122.7722,-5.228260869565217,-14.032608695652174,16.98913043478261,-280.3033587786259,64.84412213740458,155.61480916030536,-0.0464767616191904,0.1499250374812593,-0.5217391304347826
2021-05-27 15:40:54.132751616+09:00,1622097654132.7517,0.2717391304347826,-7.315217391304348,13.58695652173913,-303.7537404580152,49.97389312977099,149.21786259541986,-0.0314842578710644,0.169415292353823,-0.5097451274362819
2021-05-27 15:40:54.142730752+09:00,1622097654142.7307,23.380434782608692,-18.815217391304348,23.73913043478261,-276.9293129770992,240.90519083969463,141.76748091603054,-0.0314842578710644,0.1949025487256371,-0.5007496251874063
2021-05-27 15:40:54.152709888+09:00,1622097654152.71,16.27173913043478,-19.869565217391305,1.0326086956521738,-45.936946564885496,165.3479389312977,114.75984732824428,-0.0194902548725637,0.2098950524737631,-0.5007496251874063
2021-05-27 15:40:54.162689280+09:00,1622097654162.6892,-13.543478260869565,-13.92391304347826,23.39130434782609,-32.761374045801524,82.15709923664122,54.82091603053435,-0.0074962518740629,0.2233883058470764,-0.505247376311844
2021-05-27 15:40:54.172668416+09:00,1622097654172.6685,-6.326086956521739,-0.8260869565217391,9.434782608695652,-0.7461068702290079,24.18763358778626,14.103358778625951,0.0059970014992503,0.2233883058470764,-0.5082458770614693
2021-05-27 15:40:54.182647808+09:00,1622097654182.6477,11.891304347826086,-5.815217391304348,10.543478260869565,-64.70030534351145,24.386106870229007,9.9812213740458,0.0074962518740629,0.2233883058470764,-0.5067466266866567
2021-05-27 15:40:54.192626944+09:00,1622097654192.627,0.9239130434782608,-2.010869565217391,10.597826086956522,-5.234656488549618,26.783053435114503,13.950687022900762,0.0044977511244377,0.2293853073463268,-0.512743628185907
2021-05-27 15:40:54.202606080+09:00,1622097654202.6062,2.9891304347826084,-3.217391304347826,10.021739130434783,-20.86824427480916,14.462442748091602,9.813282442748092,0.0134932533733133,0.224887556221889,-0.5157421289355322
2021-05-27 15:40:54.212585472+09:00,1622097654212.5854,5.358695652173913,-3.5543478260869565,9.521739130434783,-9.845343511450382,21.088396946564885,13.416335877862595,0.0134932533733133,0.232383808095952,-0.5142428785607196
2021-05-27 15:40:54.222564608+09:00,1622097654222.5647,2.0,-2.6956521739130435,10.0,-0.059083969465649,16.84412213740458,11.874351145038167,0.0149925037481259,0.2233883058470764,-0.5232383808095952
2021-05-27 15:40:54.232544+09:00,1622097654232.544,4.445652173913043,-3.0760869565217392,9.391304347826086,-2.1812213740458013,18.630381679389316,12.80564885496183,0.0239880059970015,0.2218890554722638,-0.52023988005997
2021-05-27 15:40:54.242523136+09:00,1622097654242.5232,2.902173913043478,-2.9782608695652173,9.771739130434783,1.253893129770992,14.00442748091603,8.194961832061068,0.0149925037481259,0.2338830584707646,-0.512743628185907
2021-05-27 15:40:54.252532992+09:00,1622097654252.533,3.358695652173913,-2.684782608695652,9.771739130434783,3.269160305343511,13.576946564885494,7.462137404580152,0.0164917541229385,0.2278860569715142,-0.5157421289355322
2021-05-27 15:40:54.262481664+09:00,1622097654262.4817,3.891304347826087,-2.652173913043478,9.76086956521739,3.055419847328244,11.592213740458014,6.439236641221374,0.0269865067466266,0.2278860569715142,-0.5172413793103449
2021-05-27 15:40:54.272461056+09:00,1622097654272.461,3.1739130434782608,-2.652173913043478,9.73913043478261,4.108854961832061,10.676183206106868,6.286564885496182,0.0209895052473763,0.2383808095952024,-0.5097451274362819
2021-05-27 15:40:54.282440192+09:00,1622097654282.4402,3.032608695652174,-2.6956521739130435,9.793478260869565,3.024885496183206,7.607480916030535,3.080458015267176,0.0164917541229385,0.2278860569715142,-0.5112443778110944
2021-05-27 15:40:54.292419328+09:00,1622097654292.4194,3.0760869565217392,-2.641304347826087,9.782608695652174,2.169923664122137,4.569312977099237,1.8285496183206107,0.0239880059970015,0.2368815592203898,-0.5172413793103449
2021-05-27 15:40:54.302398720+09:00,1622097654302.3987,3.0869565217391304,-2.4347826086956523,9.76086956521739,0.5516030534351142,2.8746564885496184,0.6529770992366414,0.0239880059970015,0.2263868065967016,-0.5187406296851574
2021-05-27 15:40:54.312377856+09:00,1622097654312.378,3.065217391304348,-2.4891304347826084,9.75,-0.7461068702290079,1.4242748091603057,0.0117557251908398,0.0269865067466266,0.2293853073463268,-0.5112443778110944
2021-05-27 15:40:54.322357248+09:00,1622097654322.3572,3.1739130434782608,-2.5217391304347827,9.73913043478261,-2.1964885496183206,-0.9726717557251904,-0.2783206106870227,0.025487256371814,0.232383808095952,-0.5187406296851574
2021-05-27 15:40:54.332336384+09:00,1622097654332.3364,3.543478260869565,-2.5760869565217392,9.67391304347826,-2.5781679389312977,-0.6215267175572515,0.2712977099236642,0.0224887556221889,0.2308845577211394,-0.52023988005997
2021-05-27 15:40:54.342315776+09:00,1622097654342.3157,3.619565217391304,-2.532608695652174,9.576086956521738,-2.013282442748092,-0.6825954198473279,0.2865648854961833,0.0134932533733133,0.2368815592203898,-0.5142428785607196
2021-05-27 15:40:54.352294912+09:00,1622097654352.295,3.6304347826086953,-2.4456521739130435,9.608695652173912,-1.9064122137404584,0.4471755725190842,1.0346564885496183,0.0209895052473763,0.2278860569715142,-0.5262368815592203
2021-05-27 15:40:54.362274048+09:00,1622097654362.2742,3.293478260869565,-2.4239130434782608,9.641304347826086,-0.4407633587786261,0.7219847328244278,1.2178625954198474,0.0149925037481259,0.2263868065967016,-0.5157421289355322
2021-05-27 15:40:54.372253440+09:00,1622097654372.2534,3.2717391304347827,-2.4565217391304346,9.695652173913045,-3.326259541984733,0.1265648854961835,1.0651908396946566,0.0209895052473763,0.224887556221889,-0.5067466266866567
2021-05-27 15:40:54.382232832+09:00,1622097654382.233,3.2717391304347827,-2.4891304347826084,9.67391304347826,-4.089618320610687,-0.7131297709923661,0.9277862595419848,0.0134932533733133,0.2278860569715142,-0.5187406296851574
2021-05-27 15:40:54.392211968+09:00,1622097654392.212,3.2717391304347827,-2.467391304347826,9.66304347826087,-6.303358778625954,-0.6062595419847325,0.5155725190839696,0.0269865067466266,0.2353823088455772,-0.5142428785607196
2021-05-27 15:40:54.402191104+09:00,1622097654402.1912,3.369565217391304,-2.467391304347826,9.717391304347826,-7.814809160305344,-2.392519083969465,0.3934351145038169,0.0194902548725637,0.2278860569715142,-0.5187406296851574
2021-05-27 15:40:54.412170496+09:00,1622097654412.1704,3.4782608695652173,-2.4891304347826084,9.684782608695652,-8.211755725190839,-1.2780152671755722,-0.0035114503816792,0.0149925037481259,0.224887556221889,-0.52023988005997
2021-05-27 15:40:54.422149632+09:00,1622097654422.1497,3.467391304347826,-2.630434782608696,9.641304347826086,-7.967480916030534,-1.9039694656488544,0.1186259541984734,0.0224887556221889,0.2308845577211394,-0.5232383808095952
2021-05-27 15:40:54.432129024+09:00,1622097654432.129,3.380434782608696,-2.597826086956521,9.608695652173912,-8.852977099236641,-2.4230534351145034,-0.2325190839694655,0.0179910044977511,0.2308845577211394,-0.5247376311844077
2021-05-27 15:40:54.442108160+09:00,1622097654442.1082,3.4782608695652173,-2.717391304347826,9.565217391304348,-8.196488549618321,-2.4383206106870223,-1.453893129770992,0.0194902548725637,0.232383808095952,-0.512743628185907
2021-05-27 15:40:54.452087296+09:00,1622097654452.0874,3.3369565217391304,-2.717391304347826,9.66304347826087,-9.20412213740458,-3.15587786259542,-1.1943511450381676,0.0209895052473763,0.2368815592203898,-0.512743628185907
2021-05-27 15:40:54.462066944+09:00,1622097654462.067,3.315217391304348,-2.760869565217391,9.608695652173912,-8.68503816793893,-2.0719083969465646,-3.270687022900763,0.0224887556221889,0.2278860569715142,-0.5067466266866567
2021-05-27 15:40:54.472045824+09:00,1622097654472.046,3.434782608695652,-2.619565217391304,9.66304347826087,-9.57053435114504,-2.545190839694656,-5.927175572519084,0.025487256371814,0.2263868065967016,-0.512743628185907
2021-05-27 15:40:54.482055680+09:00,1622097654482.0557,3.293478260869565,-2.608695652173913,9.793478260869565,-11.387328244274808,-6.484122137404579,-2.8279389312977097,0.0179910044977511,0.2308845577211394,-0.5157421289355322
2021-05-27 15:40:54.492004352+09:00,1622097654492.0044,3.5543478260869565,-2.4565217391304346,9.793478260869565,-14.53236641221374,-8.346717557251909,-4.217251908396947,0.0179910044977511,0.2278860569715142,-0.5112443778110944
2021-05-27 15:40:54.501983744+09:00,1622097654501.9836,3.4565217391304346,-2.4565217391304346,9.793478260869565,-14.471297709923665,-7.6902290076335875,-4.32412213740458,0.0209895052473763,0.2368815592203898,-0.5112443778110944
2021-05-27 15:40:54.511962880+09:00,1622097654511.963,2.9891304347826084,-2.130434782608696,10.217391304347826,-20.44076335877863,-14.682595419847328,-2.217251908396946,0.0194902548725637,0.2308845577211394,-0.5187406296851574
2021-05-27 15:40:54.521942016+09:00,1622097654521.942,3.0543478260869565,-2.6739130434782608,9.847826086956522,-26.501832061068704,-17.720763358778626,-3.65236641221374,0.025487256371814,0.2413793103448275,-0.512743628185907
2021-05-27 15:40:54.531921408+09:00,1622097654531.9214,3.043478260869565,-2.2282608695652173,9.978260869565217,-32.562900763358776,-16.453587786259543,-6.690534351145038,0.0149925037481259,0.232383808095952,-0.5037481259370314
2021-05-27 15:40:54.541900544+09:00,1622097654541.9006,3.184782608695652,-2.467391304347826,9.967391304347826,-39.08198473282442,-20.19404580152672,-8.339389312977099,0.0149925037481259,0.232383808095952,-0.5037481259370314
2021-05-27 15:40:54.551879936+09:00,1622097654551.88,3.2391304347826084,-2.315217391304348,9.978260869565217,-46.5018320610687,-22.36198473282443,-9.514961832061068,0.0119940029985007,0.2413793103448275,-0.5037481259370314
2021-05-27 15:40:54.561859072+09:00,1622097654561.8591,3.402173913043478,-2.4239130434782608,10.108695652173912,-56.99038167938931,-24.46885496183206,-7.347022900763359,0.0149925037481259,0.2353823088455772,-0.5007496251874063
2021-05-27 15:40:54.571838464+09:00,1622097654571.8384,3.260869565217391,-2.4130434782608696,10.119565217391305,-66.30335877862595,-28.087175572519083,-4.308854961832061,0.0179910044977511,0.2458770614692653,-0.4932533733133433
2021-05-27 15:40:54.581817600+09:00,1622097654581.8176,3.010869565217391,-2.3369565217391304,10.065217391304348,-72.15068702290075,-32.94213740458015,4.423969465648854,0.0059970014992503,0.2488755622188905,-0.4917541229385307
2021-05-27 15:40:54.591796992+09:00,1622097654591.7969,3.152173913043478,-2.293478260869565,10.130434782608695,-91.55526717557252,-39.44595419847328,14.118625954198473,0.0164917541229385,0.2443778110944527,-0.4872563718140929
2021-05-27 15:40:54.601775872+09:00,1622097654601.776,3.032608695652174,-2.130434782608696,10.228260869565217,-110.56290076335875,-43.00320610687023,17.03465648854962,0.0149925037481259,0.2548725637181409,-0.4782608695652173
2021-05-27 15:40:54.611755264+09:00,1622097654611.7554,3.0543478260869565,-2.1630434782608696,10.271739130434783,-129.90641221374045,-40.39251908396947,25.47740458015267,0.0104947526236881,0.2563718140929535,-0.4692653673163418
2021-05-27 15:40:54.621734656+09:00,1622097654621.7346,3.8260869565217392,-2.380434782608696,10.554347826086955,-145.17358778625956,-34.69786259541985,26.103358778625957,0.0134932533733133,0.2578710644677661,-0.464767616191904
2021-05-27 15:40:54.631714048+09:00,1622097654631.714,3.8478260869565215,-2.532608695652174,10.01086956521739,-168.42549618320612,-39.07954198473282,32.74458015267175,0.0029985007496251,0.2758620689655172,-0.4557721139430284
2021-05-27 15:40:54.641693184+09:00,1622097654641.693,4.25,-1.6956521739130437,10.01086956521739,-188.59343511450385,-34.34671755725191,42.79038167938931,0.0074962518740629,0.2743628185907046,-0.4467766116941529
2021-05-27 15:40:54.651672320+09:00,1622097654651.6724,4.402173913043479,-2.0869565217391304,9.891304347826086,-205.75374045801527,-16.407786259541986,59.9812213740458,0.0029985007496251,0.280359820089955,-0.4272863568215891
2021-05-27 15:40:54.661651712+09:00,1622097654661.6516,4.358695652173913,-1.1739130434782608,9.619565217391305,-203.158320610687,-14.972671755725193,86.98885496183206,0.0134932533733133,0.2953523238380809,-0.424287856071964
2021-05-27 15:40:54.671630848+09:00,1622097654671.6309,4.260869565217392,-2.2065217391304346,10.17391304347826,-254.71557251908396,-23.49175572519084,87.84381679389314,0.0179910044977511,0.3058470764617691,-0.4077961019490255
2021-05-27 15:40:54.681609984+09:00,1622097654681.61,5.239130434782608,-1.8478260869565215,10.847826086956522,-299.5247328244275,-12.117709923664124,98.546106870229,0.0209895052473763,0.3103448275862069,-0.3958020989505247
2021-05-27 15:40:54.691589376+09:00,1622097654691.5894,5.195652173913043,-1.4130434782608696,10.826086956521738,-339.7537404580152,3.561679389312977,131.06519083969465,0.0284857571214392,0.3238380809595202,-0.376311844077961
2021-05-27 15:40:54.701568512+09:00,1622097654701.5686,5.282608695652174,-1.6739130434782608,11.532608695652174,-395.0361832061069,1.9738931297709923,131.79801526717557,0.04047976011994,0.335832083958021,-0.3538230884557721
2021-05-27 15:40:54.711578368+09:00,1622097654711.5784,6.554347826086956,-4.130434782608695,11.652173913043478,-444.5934351145038,7.34793893129771,143.15679389312976,0.0509745127436281,0.3463268365817091,-0.3223388305847076
2021-05-27 15:40:54.721527040+09:00,1622097654721.527,7.423913043478261,-8.695652173913043,10.66304347826087,-498.1812213740458,-3.522290076335877,161.27893129770993,0.0509745127436281,0.3568215892053973,-0.2968515742128935
2021-05-27 15:40:54.731506432+09:00,1622097654731.5063,4.641304347826087,-15.206521739130434,14.130434782608695,-500.6239694656489,-37.1406106870229,175.2483969465649,0.0644677661169415,0.3673163418290854,-0.2668665667166416
2021-05-27 15:40:54.741485568+09:00,1622097654741.4856,4.5978260869565215,-16.619565217391305,12.52173913043478,-500.6239694656489,-21.613893129770997,184.3018320610687,0.073463268365817,0.3748125937031484,-0.239880059970015
2021-05-27 15:40:54.751464960+09:00,1622097654751.4648,7.423913043478261,-16.804347826086957,14.228260869565217,-500.6239694656489,-5.934503816793892,142.6987786259542,0.0899550224887556,0.3703148425787106,-0.2083958020989505
2021-05-27 15:40:54.761444096+09:00,1622097654761.444,5.869565217391304,-19.39130434782609,14.67391304347826,-471.6163358778626,-17.568091603053436,103.8285496183206,0.0974512743628185,0.3703148425787106,-0.1664167916041979
2021-05-27 15:40:54.771422976+09:00,1622097654771.423,5.532608695652174,-16.532608695652172,13.728260869565217,-426.25755725190834,-31.96503816793893,91.44687022900764,0.1004497751124437,0.3613193403298351,-0.1304347826086956
2021-05-27 15:40:54.781402624+09:00,1622097654781.4026,4.630434782608695,-15.445652173913045,16.032608695652172,-377.21938931297706,-87.50702290076336,59.93541984732824,0.12143928035982,0.3553223388305846,-0.1079460269865067
2021-05-27 15:40:54.791381760+09:00,1622097654791.3818,6.989130434782608,-8.98913043478261,17.07608695652174,-332.70030534351145,-140.8352671755725,94.133893129771,0.1229385307346326,0.3538230884557721,-0.0749625187406296
2021-05-27 15:40:54.801361152+09:00,1622097654801.361,1.4782608695652173,2.5543478260869565,14.880434782608695,-266.71557251908393,-123.6291603053435,94.7751145038168,0.1319340329835082,0.3418290854572713,-0.0569715142428785
2021-05-27 15:40:54.811340288+09:00,1622097654811.3403,8.326086956521738,-19.83695652173913,20.93478260869565,-31.906412213740456,-143.1558778625954,135.6606106870229,0.1454272863568216,0.3328335832083958,-0.0224887556221889
2021-05-27 15:40:54.821319680+09:00,1622097654821.3196,12.282608695652174,-13.489130434782608,18.93478260869565,64.23099236641221,-92.92687022900763,84.82091603053435,0.1589205397301349,0.3403298350824588,-0.0164917541229385
2021-05-27 15:40:54.831298816+09:00,1622097654831.2988,12.358695652173912,-8.76086956521739,17.706521739130434,157.78824427480913,-59.03374045801527,41.0193893129771,0.1679160419790105,0.3463268365817091,-0.0179910044977511
2021-05-27 15:40:54.841277952+09:00,1622097654841.278,10.782608695652174,-0.6195652173913043,11.782608695652174,184.91801526717555,-30.758931297709925,0.3781679389312978,0.1724137931034482,0.3583208395802099,-0.025487256371814
2021-05-27 15:40:54.851257088+09:00,1622097654851.257,9.23913043478261,2.9456521739130435,8.217391304347826,170.29206106870228,-4.132977099236641,-32.47679389312977,0.184407796101949,0.3718140929535232,-0.0344827586206896
2021-05-27 15:40:54.861236480+09:00,1622097654861.2366,7.532608695652174,3.804347826086957,6.315217391304348,156.01725190839693,12.874656488549617,-59.911908396946565,0.176911544227886,0.3748125937031484,-0.0419790104947526
2021-05-27 15:40:54.871215872+09:00,1622097654871.2158,6.195652173913043,2.347826086956521,6.5,155.60503816793891,22.66091603053435,-83.75923664122136,0.1709145427286356,0.3793103448275862,-0.0539730134932533
2021-05-27 15:40:54.881195008+09:00,1622097654881.195,5.173913043478261,0.5652173913043478,7.630434782608695,169.2691603053435,28.49297709923664,-102.49206106870228,0.1634182908545727,0.3868065967016492,-0.0659670164917541
2021-05-27 15:40:54.891174400+09:00,1622097654891.1743,4.195652173913043,-0.7065217391304348,8.48913043478261,192.3073282442748,32.55404580152672,-115.51496183206106,0.1619190404797601,0.3973013493253373,-0.0704647676161919
2021-05-27 15:40:54.901153536+09:00,1622097654901.1536,3.032608695652174,-1.0543478260869563,8.945652173913043,217.1012213740458,33.60748091603053,-123.17908396946564,0.1499250374812593,0.4002998500749625,-0.0869565217391304
2021-05-27 15:40:54.911132928+09:00,1622097654911.1328,1.6630434782608696,-1.2826086956521738,9.054347826086955,239.37603053435112,29.18,-126.12564885496182,0.1454272863568216,0.4047976011994003,-0.1034482758620689
2021-05-27 15:40:54.921112064+09:00,1622097654921.112,0.5652173913043478,-1.2826086956521738,9.076086956521738,256.6126717557252,19.59221374045801,-125.98824427480916,0.128935532233883,0.409295352323838,-0.1109445277361319
2021-05-27 15:40:54.931091200+09:00,1622097654931.0913,-0.4239130434782608,-1.1956521739130437,8.967391304347826,269.1928244274809,6.34030534351145,-123.69816793893128,0.1274362818590704,0.409295352323838,-0.128935532233883
2021-05-27 15:40:54.941101056+09:00,1622097654941.101,-0.9456521739130436,-1.5326086956521738,9.08695652173913,277.02488549618323,-7.659694656488549,-119.05694656488548,0.1319340329835082,0.4077961019490255,-0.1469265367316341
2021-05-27 15:40:54.951049728+09:00,1622097654951.0498,-0.9782608695652174,-2.1739130434782608,9.358695652173912,284.42946564885494,-18.896335877862597,-111.75923664122136,0.1049475262368815,0.4212893553223388,-0.1604197901049475
2021-05-27 15:40:54.961029120+09:00,1622097654961.029,-0.8260869565217391,-2.8369565217391304,9.695652173913045,292.0325190839695,-26.499389312977097,-102.52259541984732,0.1034482758620689,0.424287856071964,-0.1859070464767616
2021-05-27 15:40:54.971008256+09:00,1622097654971.0083,-0.9130434782608696,-3.6630434782608696,10.217391304347826,300.6737404580153,-32.69786259541985,-93.95770992366413,0.0899550224887556,0.416791604197901,-0.2128935532233883
2021-05-27 15:40:54.980987648+09:00,1622097654980.9875,-1.0108695652173914,-4.152173913043479,10.619565217391305,309.68137404580153,-38.82,-86.78213740458014,0.08095952023988,0.4272863568215891,-0.2278860569715142
2021-05-27 15:40:54.990966784+09:00,1622097654990.9668,-1.0326086956521738,-4.510869565217392,10.91304347826087,318.01725190839693,-44.69786259541985,-82.21725190839693,0.0824587706146926,0.4272863568215891,-0.2443778110944527
2021-05-27 15:40:55.000945920+09:00,1622097655000.946,-0.8043478260869565,-4.913043478260869,11.206521739130434,324.00198473282444,-48.57572519083969,-80.61419847328243,0.0779610194902548,0.4287856071964018,-0.2623688155922039
2021-05-27 15:40:55.010925312+09:00,1622097655010.9253,-0.0869565217391304,-5.434782608695652,11.51086956521739,328.6279389312977,-47.674961832061065,-81.27068702290076,0.0689655172413793,0.4272863568215891,-0.2953523238380809
